sound,rule,binomials,structure,predicted_order,binomials2,trials.thisRepN,trials.thisTrialN,trials.thisN,trials.thisIndex,trials_3.thisRepN,trials_3.thisTrialN,trials_3.thisN,trials_3.thisIndex,key_resp_4.keys,key_resp_4.rt,rating_2.response,rating_2.rt,rating_5.response,rating_5.rt,date,frameRate,expName,session,participant
,,,,,,,,,,,,,,space,9.7674355292,,,,,2015_Dec_30_1312,32.0139831584,binomials,1,r103
C:\Users\viola\Desktop\ENG_GHM\rizeptrizep.wav,FCN,rizept and rizep                   rizep and rizept,conj,R,,0,0,0,55,,,,,,,5,10.185,,,2015_Dec_30_1312,32.0139831584,binomials,1,r103
C:\Users\viola\Desktop\ENG_GHM\guskingluskin.wav,ICN,guskin-gluskin            gluskin-guskin,red,L,,0,1,1,42,,,,,,,6,8.963,,,2015_Dec_30_1312,32.0139831584,binomials,1,r103
C:\Users\viola\Desktop\ENG_GHM\plibsterpibster.wav,ICN,plibster and pibster              pibster and plibster,conj,R,,0,2,2,49,,,,,,,6,7.663,,,2015_Dec_30_1312,32.0139831584,binomials,1,r103
C:\Users\viola\Desktop\ENG_GHM\beetowbreetow.wav,ICN,beetow and breetow             breetow and beetow,conj,L,,0,3,3,48,,,,,,,1,7.707,,,2015_Dec_30_1312,32.0139831584,binomials,1,r103
C:\Users\viola\Desktop\ENG_GHM\deefelheefel.wav,IS,deefel-heefel               heefel-deefel,red,R,,0,4,4,3,,,,,,,2,8.68,,,2015_Dec_30_1312,32.0139831584,binomials,1,r103
C:\Users\viola\Desktop\ENG_GHM\hestamhestad.wav,FS,hestam and hestad            hestad and hestam,conj,R,,0,5,5,17,,,,,,,1,5.719,,,2015_Dec_30_1312,32.0139831584,binomials,1,r103
C:\Users\viola\Desktop\ENG_GHM\fullsyfoolsy.wav,VL,fullsy and foolsy                    foolsy and fullsy,conj,L,,0,6,6,37,,,,,,,1,7.631,,,2015_Dec_30_1312,32.0139831584,binomials,1,r103
C:\Users\viola\Desktop\ENG_GHM\croosetcooset.wav,ICN,crooset-cooset           cooset-crooset,red,R,,0,7,7,43,,,,,,,6,9.858,,,2015_Dec_30_1312,32.0139831584,binomials,1,r103
C:\Users\viola\Desktop\ENG_GHM\deckeldockel.wav,VQ,deckel-dockel                dockel-deckel,red,L,,0,8,8,23,,,,,,,2,11.499,,,2015_Dec_30_1312,32.0139831584,binomials,1,r103
C:\Users\viola\Desktop\ENG_GHM\vertylerty.wav,IS,verty-lerty                   lerty-verty,red,R,,0,9,9,1,,,,,,,6,9.199,,,2015_Dec_30_1312,32.0139831584,binomials,1,r103
C:\Users\viola\Desktop\ENG_GHM\loogleboogle.wav,IS,loogle-boogle              boogle-loogle,red,L,,0,10,10,0,,,,,,,4,17.442,,,2015_Dec_30_1312,32.0139831584,binomials,1,r103
C:\Users\viola\Desktop\ENG_GHM\rigsterragster.wav,VQ,rigster and ragster                ragster and rigster,conj,L,,0,11,11,28,,,,,,,4,9.016,,,2015_Dec_30_1312,32.0139831584,binomials,1,r103
C:\Users\viola\Desktop\ENG_GHM\listerleaster.wav,VL,lister-leaster               leaster-lister,red,L,,0,12,12,30,,,,,,,2,7.285,,,2015_Dec_30_1312,32.0139831584,binomials,1,r103
C:\Users\viola\Desktop\ENG_GHM\poolsterpullster.wav,VL,poolster-pullster          pullster-poolster,red,R,,0,13,13,31,,,,,,,5,5.683,,,2015_Dec_30_1312,32.0139831584,binomials,1,r103
C:\Users\viola\Desktop\ENG_GHM\horketnorket.wav,IS,horkit-norkit                norkit-horkit,red,L,,0,14,14,2,,,,,,,6,8.878,,,2015_Dec_30_1312,32.0139831584,binomials,1,r103
C:\Users\viola\Desktop\ENG_GHM\bickeshbickel.wav,FS,bickesh-bickell           bickell-bickesh,red,L,,0,15,15,10,,,,,,,1,7.145,,,2015_Dec_30_1312,32.0139831584,binomials,1,r103
C:\Users\viola\Desktop\ENG_GHM\feckinfreckin.wav,ICN,feckin-freckin              freckin-feckin,red,L,,0,16,16,44,,,,,,,2,9.638,,,2015_Dec_30_1312,32.0139831584,binomials,1,r103
C:\Users\viola\Desktop\ENG_GHM\bepleckbeplock.wav,VQ,bepleck and beplock            beplock and bepleck,conj,L,,0,17,17,27,,,,,,,1,9.957,,,2015_Dec_30_1312,32.0139831584,binomials,1,r103
C:\Users\viola\Desktop\ENG_GHM\beroapberoapt.wav,FCN,beroap-beroapt          beroapt-beroap,red,L,,0,18,18,52,,,,,,,5,9.703,,,2015_Dec_30_1312,32.0139831584,binomials,1,r103
C:\Users\viola\Desktop\ENG_GHM\spoolkyspullky.wav,VL,spoolky and spullky              spullky and spoolky,conj,R,,0,19,19,35,,,,,,,3,15.518,,,2015_Dec_30_1312,32.0139831584,binomials,1,r103
C:\Users\viola\Desktop\ENG_GHM\revidrevad.wav,VQ,revid-revad                     revad-revid,red,L,,0,20,20,24,,,,,,,5,8.744,,,2015_Dec_30_1312,32.0139831584,binomials,1,r103
C:\Users\viola\Desktop\ENG_GHM\yoglitstoglits.wav,IS,yoglits and toglits                toglits and yoglits,conj,L,,0,21,21,8,,,,,,,2,10.364,,,2015_Dec_30_1312,32.0139831584,binomials,1,r103
C:\Users\viola\Desktop\ENG_GHM\sigglestiggle.wav,ICN,siggle and stiggle                stiggle and siggle,conj,L,,0,22,22,46,,,,,,,2,7.359,,,2015_Dec_30_1312,32.0139831584,binomials,1,r103
C:\Users\viola\Desktop\ENG_GHM\tefoiltefoig.wav,FS,tefoil and tefoig                  tefoig and tefoil,conj,R,,0,23,23,19,,,,,,,6,6.124,,,2015_Dec_30_1312,32.0139831584,binomials,1,r103
C:\Users\viola\Desktop\ENG_GHM\sladvinslidvin.wav,VQ,sladvin and slidvin                slidvin and sladvin,conj,R,,0,24,24,26,,,,,,,5,3.873,,,2015_Dec_30_1312,32.0139831584,binomials,1,r103
C:\Users\viola\Desktop\ENG_GHM\cleesty-clisty.wav,VL,cleesty-clisty              clisty-cleesty,red,R,,0,25,25,32,,,,,,,6,7.656,,,2015_Dec_30_1312,32.0139831584,binomials,1,r103
C:\Users\viola\Desktop\ENG_GHM\lantiesvanties.wav,IS,lanties and vanties               vanties and lanties,conj,L,,0,26,26,6,,,,,,,1,6.078,,,2015_Dec_30_1312,32.0139831584,binomials,1,r103
C:\Users\viola\Desktop\ENG_GHM\redoolredoob.wav,FS,redool and redoob       redoob and redool,conj,R,,0,27,27,15,,,,,,,6,6.485,,,2015_Dec_30_1312,32.0139831584,binomials,1,r103
C:\Users\viola\Desktop\ENG_GHM\clazzipclizzip.wav,VQ,clazzip-clizzip               clizzip-clazzip,red,R,,0,28,28,22,,,,,,,4,7.277,,,2015_Dec_30_1312,32.0139831584,binomials,1,r103
C:\Users\viola\Desktop\ENG_GHM\fibsterfeabster.wav,VL,fibster and feabster               feabster and fibster,conj,L,,0,29,29,38,,,,,,,1,5.398,,,2015_Dec_30_1312,32.0139831584,binomials,1,r103
C:\Users\viola\Desktop\ENG_GHM\miscottmiscon.wav,FS,miscott-miscon          miscon-miscott,red,L,,0,30,30,14,,,,,,,2,8.917,,,2015_Dec_30_1312,32.0139831584,binomials,1,r103
C:\Users\viola\Desktop\ENG_GHM\teskerresker.wav,IS,            tesker and resker               resker and tesker                 ,conj,R,,0,31,31,7,,,,,,,5,9.087,,,2015_Dec_30_1312,32.0139831584,binomials,1,r103
C:\Users\viola\Desktop\ENG_GHM\linooctlinooc.wav,FCN,linooct and linooc                linooc and linooct,conj,R,,0,32,32,59,,,,,,,1,9.773,,,2015_Dec_30_1312,32.0139831584,binomials,1,r103
C:\Users\viola\Desktop\ENG_GHM\pleefterplifter.wav,VL,pleefter and plifter                 plifter and pleefter,conj,R,,0,33,33,36,,,,,,,6,9.628,,,2015_Dec_30_1312,32.0139831584,binomials,1,r103
C:\Users\viola\Desktop\ENG_GHM\restellresteg.wav,FS,restell-resteg              resteg-restell,red,R,,0,34,34,11,,,,,,,6,10.705,,,2015_Dec_30_1312,32.0139831584,binomials,1,r103
C:\Users\viola\Desktop\ENG_GHM\bockelbeckel.wav,VQ,bockel-beckel                beckel-bockel,red,R,,0,35,35,21,,,,,,,5,8.378,,,2015_Dec_30_1312,32.0139831584,binomials,1,r103
C:\Users\viola\Desktop\ENG_GHM\lishooclishoon.wav,FS,lishooc-lishoon           lishoon-lishooc,red,L,,0,36,36,12,,,,,,,3,9.2,,,2015_Dec_30_1312,32.0139831584,binomials,1,r103
C:\Users\viola\Desktop\ENG_GHM\deriptderip.wav,FCN,deript and derip                   derip and deript,conj,R,,0,37,37,57,,,,,,,1,5.549,,,2015_Dec_30_1312,32.0139831584,binomials,1,r103
C:\Users\viola\Desktop\ENG_GHM\befoolpbefulp.wav,VL,befoolp and befulp                 befulp and befoolp,conj,R,,0,38,38,39,,,,,,,1,10.585,,,2015_Dec_30_1312,32.0139831584,binomials,1,r103
C:\Users\viola\Desktop\ENG_GHM\loskylesky.wav,VQ,losky and lesky                   lesky and losky,conj,R,,0,39,39,29,,,,,,,3,9.13,,,2015_Dec_30_1312,32.0139831584,binomials,1,r103
C:\Users\viola\Desktop\ENG_GHM\pichoogpichoon.wav,FS,pichoog and pichoon          pichoon and pichoog,conj,L,,0,40,40,16,,,,,,,4,11.684,,,2015_Dec_30_1312,32.0139831584,binomials,1,r103
C:\Users\viola\Desktop\ENG_GHM\plengsterpengster.wav,ICN,plenster and penster            penster and plenster,conj,R,,0,41,41,47,,,,,,,5,8.624,,,2015_Dec_30_1312,32.0139831584,binomials,1,r103
C:\Users\viola\Desktop\ENG_GHM\neasterheaster.wav,IS,neaster and heaster             heaster and neaster,conj,R,,0,42,42,5,,,,,,,2,11.091,,,2015_Dec_30_1312,32.0139831584,binomials,1,r103
C:\Users\viola\Desktop\ENG_GHM\lomickgomick.wav,IS,lomick-gomick            gomick-lomick,red,L,,0,43,43,4,,,,,,,2,13.064,,,2015_Dec_30_1312,32.0139831584,binomials,1,r103
C:\Users\viola\Desktop\ENG_GHM\repooctrepooc.wav,FCN,repooct-repooc          repooc-repooct,red,R,,0,44,44,51,,,,,,,2,11.689,,,2015_Dec_30_1312,32.0139831584,binomials,1,r103
C:\Users\viola\Desktop\ENG_GHM\seroapseroapt.wav,FCN,seroap-seroapt          seroapt-seroap,red,L,,0,45,45,50,,,,,,,6,10.267,,,2015_Dec_30_1312,32.0139831584,binomials,1,r103
C:\Users\viola\Desktop\ENG_GHM\ristyreasty.wav,VL,risty-reasty                 reasty-risty,red,L,,0,46,46,34,,,,,,,4,16.798,,,2015_Dec_30_1312,32.0139831584,binomials,1,r103
C:\Users\viola\Desktop\ENG_GHM\sponersoner.wav,ICN,sponer-soner              soner-sponer,red,R,,0,47,47,41,,,,,,,5,9.208,,,2015_Dec_30_1312,32.0139831584,binomials,1,r103
C:\Users\viola\Desktop\ENG_GHM\fedooptfedoop.wav,FCN,fedoopt-fedoop           fedoop-fedoopt,red,R,,0,48,48,53,,,,,,,1,10.051,,,2015_Dec_30_1312,32.0139831584,binomials,1,r103
C:\Users\viola\Desktop\ENG_GHM\rebamrebat.wav,FS,rebam-rebat               rebat-rebam,red,R,,0,49,49,13,,,,,,,1,10.128,,,2015_Dec_30_1312,32.0139831584,binomials,1,r103
C:\Users\viola\Desktop\ENG_GHM\biscowwiscow.wav,IS,biscow and wiscow              wiscow and biscow,conj,R,,0,50,50,9,,,,,,,6,8.613,,,2015_Dec_30_1312,32.0139831584,binomials,1,r103
C:\Users\viola\Desktop\ENG_GHM\kizzykrizzy.wav,ICN,kizzy-krizzy               krizzy-kizzy,red,L,,0,51,51,40,,,,,,,1,9.498,,,2015_Dec_30_1312,32.0139831584,binomials,1,r103
C:\Users\viola\Desktop\ENG_GHM\lisketlasket.wav,VQ,lisket-lasket                  lasket-lisket,red,L,,0,52,52,20,,,,,,,1,9.216,,,2015_Dec_30_1312,32.0139831584,binomials,1,r103
C:\Users\viola\Desktop\ENG_GHM\bullgorboolgor.wav,VL,bullgor-boolgor            boolgor-bullgor,red,L,,0,53,53,33,,,,,,,4,12.721,,,2015_Dec_30_1312,32.0139831584,binomials,1,r103
C:\Users\viola\Desktop\ENG_GHM\resteacresteact.wav,FCN,resteac and resteact            resteact and resteac,conj,L,,0,54,54,58,,,,,,,3,14.712,,,2015_Dec_30_1312,32.0139831584,binomials,1,r103
C:\Users\viola\Desktop\ENG_GHM\steloatsteloam.wav,FS,steloat and steloam           steloam and steloat,conj,L,,0,55,55,18,,,,,,,1,8.255,,,2015_Dec_30_1312,32.0139831584,binomials,1,r103
C:\Users\viola\Desktop\ENG_GHM\booteecboteect.wav,FCN,boteec and boteect              boteect and boteec,conj,L,,0,56,56,56,,,,,,,2,11.205,,,2015_Dec_30_1312,32.0139831584,binomials,1,r103
C:\Users\viola\Desktop\ENG_GHM\stockelsteckel.wav,VQ,stockel and steckel             steckel and stockel,conj,R,,0,57,57,25,,,,,,,6,11.178,,,2015_Dec_30_1312,32.0139831584,binomials,1,r103
C:\Users\viola\Desktop\ENG_GHM\spettysetty.wav,ICN,spetty and setty                  setty and spetty,conj,R,,0,58,58,45,,,,,,,5,9.591,,,2015_Dec_30_1312,32.0139831584,binomials,1,r103
C:\Users\viola\Desktop\ENG_GHM\revecrevect.wav,FCN,revec-revect               revect-revec,red,L,,0,59,59,54,,,,,,,6,7.474,,,2015_Dec_30_1312,32.0139831584,binomials,1,r103
C:\Users\viola\Desktop\ENG_GHM\bilnerbulner.wav,Q/L,,red,L,bilner-bullner               bilner-bealner,,,,,0,0,0,1,,,,,1,10.004,2015_Dec_30_1312,32.0139831584,binomials,1,r103
C:\Users\viola\Desktop\ENG_GHM\nicketnucket.wav,Q/L,,red,L,nicket-nooket              nicket-neeket,,,,,0,1,1,3,,,,,1,9.393,2015_Dec_30_1312,32.0139831584,binomials,1,r103
C:\Users\viola\Desktop\ENG_GHM\cabickcabeeck.wav,Q/L,,conj,R,cabick  and cabeek               cabick and cabook,,,,,0,2,2,6,,,,,1,8.718,2015_Dec_30_1312,32.0139831584,binomials,1,r103
C:\Users\viola\Desktop\ENG_GHM\seskykesky.wav,IS/ICN,,conj,L,sesky and kesky                    sesky and slesky ,,,,,0,3,3,35,,,,,1,10.031,2015_Dec_30_1312,32.0139831584,binomials,1,r103
C:\Users\viola\Desktop\ENG_GHM\tiglowtaglow.wav,ICN/Q,,red,L,tiglow-taglow                 tiglow-triglow,,,,,0,4,4,20,,,,,1,9.553,2015_Dec_30_1312,32.0139831584,binomials,1,r103
C:\Users\viola\Desktop\ENG_GHM\kettipkrettip.wav,ICN/Q,,conj,R,kettip and krettip                     kettip and kottip,,,,,0,5,5,27,,,,,6,10.832,2015_Dec_30_1312,32.0139831584,binomials,1,r103
C:\Users\viola\Desktop\ENG_GHM\deblicdreblic.wav,ICN/Q,,conj,R,deblic and dreblic                    deblic and doblic,,,,,0,6,6,25,,,,,6,10.736,2015_Dec_30_1312,32.0139831584,binomials,1,r103
C:\Users\viola\Desktop\ENG_GHM\fiprettipret.wav,IS/ICN,,red,L,          fipret-tipret                   fipret-flipret                   ,,,,,0,7,7,31,,,,,1,9.78,2015_Dec_30_1312,32.0139831584,binomials,1,r103
C:\Users\viola\Desktop\ENG_GHM\teckletackle.wav,ICN/Q,,red,L,teckil-tockil                   teckil-treckil,,,,,0,8,8,23,,,,,4,10.309,2015_Dec_30_1312,32.0139831584,binomials,1,r103
C:\Users\viola\Desktop\ENG_GHM\sitlenpitlen.wav,IS/Q,,conj,L,sitlen and pitlen                      sitlen and satlen,,,,,0,9,9,16,,,,,1,8.614,2015_Dec_30_1312,32.0139831584,binomials,1,r103
C:\Users\viola\Desktop\ENG_GHM\filkyfealky.wav,Q/L,,red,R,filky-fealky                  filky-fulky,,,,,0,10,10,0,,,,,6,7.717,2015_Dec_30_1312,32.0139831584,binomials,1,r103
C:\Users\viola\Desktop\ENG_GHM\ditlendatlen.wav,ICN/Q,,conj,L,         ditlen and datlen                     ditlen and dritlen           ,,,,,0,11,11,26,,,,,2,11.065,2015_Dec_30_1312,32.0139831584,binomials,1,r103
C:\Users\viola\Desktop\ENG_GHM\secklesteckle.wav,IS/ICN,,red,R,seckil-steckil               seckil-beckil,,,,,0,12,12,32,,,,,4,12.417,2015_Dec_30_1312,32.0139831584,binomials,1,r103
C:\Users\viola\Desktop\ENG_GHM\sipretsapret.wav,IS/Q,,red,R,sipret-sapret                  sipret-dipret,,,,,0,13,13,12,,,,,6,13.813,2015_Dec_30_1312,32.0139831584,binomials,1,r103
C:\Users\viola\Desktop\ENG_GHM\fiplyfaply.wav,IS/Q,,red,R,fiply-faply                       fiply-biply,,,,,0,14,14,10,,,,,5,10.661,2015_Dec_30_1312,32.0139831584,binomials,1,r103
C:\Users\viola\Desktop\ENG_GHM\fitlenfritlen.wav,IS/ICN,,conj,R,fitlen and fritlen                        fitlen and kitlen   ,,,,,0,15,15,38,,,,,6,11.587,2015_Dec_30_1312,32.0139831584,binomials,1,r103
C:\Users\viola\Desktop\ENG_GHM\geskyglesky.wav,ICN/Q,,conj,R,gesky and glesky                    gesky and gosky,,,,,0,16,16,29,,,,,2,13.517,2015_Dec_30_1312,32.0139831584,binomials,1,r103
C:\Users\viola\Desktop\ENG_GHM\filgerfeelger.wav,Q/L,,conj,R,filger and feelger                    filger and fulger,,,,,0,17,17,8,,,,,6,10.45,2015_Dec_30_1312,32.0139831584,binomials,1,r103
C:\Users\viola\Desktop\ENG_GHM\ferishflerish.wav,IS/ICN,,red,R,ferish-flerish                 ferish-terish,,,,,0,18,18,30,,,,,2,15.488,2015_Dec_30_1312,32.0139831584,binomials,1,r103
C:\Users\viola\Desktop\ENG_GHM\kiplykriply.wav,ICN/Q,,red,R,kiply-kriply                    kiply-kaply,,,,,0,19,19,24,,,,,2,8.849,2015_Dec_30_1312,32.0139831584,binomials,1,r103
C:\Users\viola\Desktop\ENG_GHM\siply-tiply.wav,IS/ICN,,red,L,siply-tiply                     siply-sliply,,,,,0,20,20,33,,,,,1,8.154,2015_Dec_30_1312,32.0139831584,binomials,1,r103
C:\Users\viola\Desktop\ENG_GHM\berickbereack.wav,Q/L,,red,R,berick-bereek              berick-berook,,,,,0,21,21,4,,,,,6,10.833,2015_Dec_30_1312,32.0139831584,binomials,1,r103
C:\Users\viola\Desktop\ENG_GHM\figlowfliglow.wav,IS/ICN,,red,R,           figlow-fliglow                      figlow-biglow                               ,,,,,0,22,22,34,,,,,6,7.882,2015_Dec_30_1312,32.0139831584,binomials,1,r103
C:\Users\viola\Desktop\ENG_GHM\siglowsaglow.wav,IS/Q,,red,R,siglow-saglow                siglow-kiglow,,,,,0,23,23,14,,,,,6,9.106,2015_Dec_30_1312,32.0139831584,binomials,1,r103
C:\Users\viola\Desktop\ENG_GHM\settipgettip.wav,IS/ICN,,conj,L,settip and gettip                      settip and slettip,,,,,0,24,24,37,,,,,1,8.176,2015_Dec_30_1312,32.0139831584,binomials,1,r103
C:\Users\viola\Desktop\ENG_GHM\serishderish.wav,IS/Q,,red,L,serish-derish                  serish-sorish,,,,,0,25,25,13,,,,,1,8.623,2015_Dec_30_1312,32.0139831584,binomials,1,r103
C:\Users\viola\Desktop\ENG_GHM\fettipfottip.wav,IS/Q,,conj,R,fettip and fottip                        fettip and bettip,,,,,0,26,26,17,,,,,6,11.067,2015_Dec_30_1312,32.0139831584,binomials,1,r103
C:\Users\viola\Desktop\ENG_GHM\bipretblipret.wav,ICN/Q,,red,R,bipret-blipret                 bipret-bapret,,,,,0,27,27,22,,,,,6,8.678,2015_Dec_30_1312,32.0139831584,binomials,1,r103
C:\Users\viola\Desktop\ENG_GHM\sipothbipoth.wav,IS/Q,,conj,L,          sipoth and bipoth                 sipoth and sapoth                    ,,,,,0,28,28,18,,,,,1,8.839,2015_Dec_30_1312,32.0139831584,binomials,1,r103
C:\Users\viola\Desktop\ENG_GHM\feckildeckil.wav,IS/Q,,red,L,feckil-deckil                   feckil-fockil,,,,,0,29,29,11,,,,,2,12.275,2015_Dec_30_1312,32.0139831584,binomials,1,r103
C:\Users\viola\Desktop\ENG_GHM\kerishklerish.wav,ICN/Q,,red,R,kerish-klerish                kerish-korish,,,,,0,30,30,21,,,,,3,14.455,2015_Dec_30_1312,32.0139831584,binomials,1,r103
C:\Users\viola\Desktop\ENG_GHM\liknepleeknep.wav,Q/L,,red,R,liknep-leeknep             liknep-looknep,,,,,0,31,31,2,,,,,4,11.332,2015_Dec_30_1312,32.0139831584,binomials,1,r103
C:\Users\viola\Desktop\ENG_GHM\tipothtapoth.wav,ICN/Q,,conj,L,tipoth and tapoth                     tipoth and tripoth,,,,,0,32,32,28,,,,,3,6.526,2015_Dec_30_1312,32.0139831584,binomials,1,r103
C:\Users\viola\Desktop\ENG_GHM\fipothflipoth.wav,IS/ICN,,conj,R,fipoth and flipoth                      fipoth and dipoth,,,,,0,33,33,36,,,,,5,8.375,2015_Dec_30_1312,32.0139831584,binomials,1,r103
C:\Users\viola\Desktop\ENG_GHM\feblickeblic.wav,IS/Q,,conj,L,feblic and keblic                      feblic and foblic,,,,,0,34,34,15,,,,,6,10.223,2015_Dec_30_1312,32.0139831584,binomials,1,r103
C:\Users\viola\Desktop\ENG_GHM\vickervooker.wav,Q/L,,conj,L,vicker and voocker                 vicker and veecker,,,,,0,35,35,5,,,,,1,5.217,2015_Dec_30_1312,32.0139831584,binomials,1,r103
C:\Users\viola\Desktop\ENG_GHM\diplerdoopler.wav,Q/L,,conj,L,dipler and doopler                  dipler and deepler,,,,,0,36,36,9,,,,,6,8.188,2015_Dec_30_1312,32.0139831584,binomials,1,r103
C:\Users\viola\Desktop\ENG_GHM\feblicteblic.wav,IS/ICN,,conj,L,feblic and teblic                       feblic and fleblic ,,,,,0,37,37,39,,,,,1,6.75,2015_Dec_30_1312,32.0139831584,binomials,1,r103
C:\Users\viola\Desktop\ENG_GHM\feskytesky.wav,IS/Q,,conj,L,fesky and tesky                      fesky and fosky,,,,,0,38,38,19,,,,,1,5.542,2015_Dec_30_1312,32.0139831584,binomials,1,r103
C:\Users\viola\Desktop\ENG_GHM\shicketshucket.wav,Q/L,,conj,L,shicket and shucket              shicket and sheecket,,,,,0,39,39,7,,,,,2,9.965,2015_Dec_30_1312,32.0139831584,binomials,1,r103
