sound,rule,binomials,structure,predicted_order,binomials2,trials.thisRepN,trials.thisTrialN,trials.thisN,trials.thisIndex,trials_3.thisRepN,trials_3.thisTrialN,trials_3.thisN,trials_3.thisIndex,key_resp_4.keys,key_resp_4.rt,rating_2.response,rating_2.rt,rating_5.response,rating_5.rt,date,frameRate,expName,session,participant
,,,,,,,,,,,,,,space,9.8552950849,,,,,2016_Jan_19_1103,31.971980582,binomials,1,r108
C:\Users\viola\Desktop\ENG_GHM\sladvinslidvin.wav,VQ,sladvin and slidvin                slidvin and sladvin,conj,R,,0,0,0,26,,,,,,,5,6.94,,,2016_Jan_19_1103,31.971980582,binomials,1,r108
C:\Users\viola\Desktop\ENG_GHM\deckeldockel.wav,VQ,deckel-dockel                dockel-deckel,red,L,,0,1,1,23,,,,,,,2,4.935,,,2016_Jan_19_1103,31.971980582,binomials,1,r108
C:\Users\viola\Desktop\ENG_GHM\croosetcooset.wav,ICN,crooset-cooset           cooset-crooset,red,R,,0,2,2,43,,,,,,,6,6.765,,,2016_Jan_19_1103,31.971980582,binomials,1,r108
C:\Users\viola\Desktop\ENG_GHM\pichoogpichoon.wav,FS,pichoog and pichoon          pichoon and pichoog,conj,L,,0,3,3,16,,,,,,,2,6.776,,,2016_Jan_19_1103,31.971980582,binomials,1,r108
C:\Users\viola\Desktop\ENG_GHM\loskylesky.wav,VQ,losky and lesky                   lesky and losky,conj,R,,0,4,4,29,,,,,,,1,4.55,,,2016_Jan_19_1103,31.971980582,binomials,1,r108
C:\Users\viola\Desktop\ENG_GHM\revidrevad.wav,VQ,revid-revad                     revad-revid,red,L,,0,5,5,24,,,,,,,5,5.53,,,2016_Jan_19_1103,31.971980582,binomials,1,r108
C:\Users\viola\Desktop\ENG_GHM\booteecboteect.wav,FCN,boteec and boteect              boteect and boteec,conj,L,,0,6,6,56,,,,,,,4,6.903,,,2016_Jan_19_1103,31.971980582,binomials,1,r108
C:\Users\viola\Desktop\ENG_GHM\miscottmiscon.wav,FS,miscott-miscon          miscon-miscott,red,L,,0,7,7,14,,,,,,,6,6.225,,,2016_Jan_19_1103,31.971980582,binomials,1,r108
C:\Users\viola\Desktop\ENG_GHM\plibsterpibster.wav,ICN,plibster and pibster              pibster and plibster,conj,R,,0,8,8,49,,,,,,,5,5.941,,,2016_Jan_19_1103,31.971980582,binomials,1,r108
C:\Users\viola\Desktop\ENG_GHM\sigglestiggle.wav,ICN,siggle and stiggle                stiggle and siggle,conj,L,,0,9,9,46,,,,,,,1,4.871,,,2016_Jan_19_1103,31.971980582,binomials,1,r108
C:\Users\viola\Desktop\ENG_GHM\listerleaster.wav,VL,lister-leaster               leaster-lister,red,L,,0,10,10,30,,,,,,,6,4.858,,,2016_Jan_19_1103,31.971980582,binomials,1,r108
C:\Users\viola\Desktop\ENG_GHM\tefoiltefoig.wav,FS,tefoil and tefoig                  tefoig and tefoil,conj,R,,0,11,11,19,,,,,,,5,6.321,,,2016_Jan_19_1103,31.971980582,binomials,1,r108
C:\Users\viola\Desktop\ENG_GHM\loogleboogle.wav,IS,loogle-boogle              boogle-loogle,red,L,,0,12,12,0,,,,,,,4,6.75,,,2016_Jan_19_1103,31.971980582,binomials,1,r108
C:\Users\viola\Desktop\ENG_GHM\steloatsteloam.wav,FS,steloat and steloam           steloam and steloat,conj,L,,0,13,13,18,,,,,,,6,5.823,,,2016_Jan_19_1103,31.971980582,binomials,1,r108
C:\Users\viola\Desktop\ENG_GHM\biscowwiscow.wav,IS,biscow and wiscow              wiscow and biscow,conj,R,,0,14,14,9,,,,,,,6,5.196,,,2016_Jan_19_1103,31.971980582,binomials,1,r108
C:\Users\viola\Desktop\ENG_GHM\beroapberoapt.wav,FCN,beroap-beroapt          beroapt-beroap,red,L,,0,15,15,52,,,,,,,4,6.776,,,2016_Jan_19_1103,31.971980582,binomials,1,r108
C:\Users\viola\Desktop\ENG_GHM\horketnorket.wav,IS,horkit-norkit                norkit-horkit,red,L,,0,16,16,2,,,,,,,1,5.408,,,2016_Jan_19_1103,31.971980582,binomials,1,r108
C:\Users\viola\Desktop\ENG_GHM\restellresteg.wav,FS,restell-resteg              resteg-restell,red,R,,0,17,17,11,,,,,,,1,5.698,,,2016_Jan_19_1103,31.971980582,binomials,1,r108
C:\Users\viola\Desktop\ENG_GHM\feckinfreckin.wav,ICN,feckin-freckin              freckin-feckin,red,L,,0,18,18,44,,,,,,,6,4.857,,,2016_Jan_19_1103,31.971980582,binomials,1,r108
C:\Users\viola\Desktop\ENG_GHM\revecrevect.wav,FCN,revec-revect               revect-revec,red,L,,0,19,19,54,,,,,,,2,7.837,,,2016_Jan_19_1103,31.971980582,binomials,1,r108
C:\Users\viola\Desktop\ENG_GHM\poolsterpullster.wav,VL,poolster-pullster          pullster-poolster,red,R,,0,20,20,31,,,,,,,5,5.756,,,2016_Jan_19_1103,31.971980582,binomials,1,r108
C:\Users\viola\Desktop\ENG_GHM\vertylerty.wav,IS,verty-lerty                   lerty-verty,red,R,,0,21,21,1,,,,,,,5,5.009,,,2016_Jan_19_1103,31.971980582,binomials,1,r108
C:\Users\viola\Desktop\ENG_GHM\redoolredoob.wav,FS,redool and redoob       redoob and redool,conj,R,,0,22,22,15,,,,,,,6,5.742,,,2016_Jan_19_1103,31.971980582,binomials,1,r108
C:\Users\viola\Desktop\ENG_GHM\bullgorboolgor.wav,VL,bullgor-boolgor            boolgor-bullgor,red,L,,0,23,23,33,,,,,,,5,5.359,,,2016_Jan_19_1103,31.971980582,binomials,1,r108
C:\Users\viola\Desktop\ENG_GHM\repooctrepooc.wav,FCN,repooct-repooc          repooc-repooct,red,R,,0,24,24,51,,,,,,,5,5.564,,,2016_Jan_19_1103,31.971980582,binomials,1,r108
C:\Users\viola\Desktop\ENG_GHM\befoolpbefulp.wav,VL,befoolp and befulp                 befulp and befoolp,conj,R,,0,25,25,39,,,,,,,5,8.855,,,2016_Jan_19_1103,31.971980582,binomials,1,r108
C:\Users\viola\Desktop\ENG_GHM\stockelsteckel.wav,VQ,stockel and steckel             steckel and stockel,conj,R,,0,26,26,25,,,,,,,4,6.036,,,2016_Jan_19_1103,31.971980582,binomials,1,r108
C:\Users\viola\Desktop\ENG_GHM\bepleckbeplock.wav,VQ,bepleck and beplock            beplock and bepleck,conj,L,,0,27,27,27,,,,,,,2,9.666,,,2016_Jan_19_1103,31.971980582,binomials,1,r108
C:\Users\viola\Desktop\ENG_GHM\teskerresker.wav,IS,            tesker and resker               resker and tesker                 ,conj,R,,0,28,28,7,,,,,,,1,5.285,,,2016_Jan_19_1103,31.971980582,binomials,1,r108
C:\Users\viola\Desktop\ENG_GHM\deefelheefel.wav,IS,deefel-heefel               heefel-deefel,red,R,,0,29,29,3,,,,,,,5,5.215,,,2016_Jan_19_1103,31.971980582,binomials,1,r108
C:\Users\viola\Desktop\ENG_GHM\rebamrebat.wav,FS,rebam-rebat               rebat-rebam,red,R,,0,30,30,13,,,,,,,6,4.663,,,2016_Jan_19_1103,31.971980582,binomials,1,r108
C:\Users\viola\Desktop\ENG_GHM\lomickgomick.wav,IS,lomick-gomick            gomick-lomick,red,L,,0,31,31,4,,,,,,,6,4.057,,,2016_Jan_19_1103,31.971980582,binomials,1,r108
C:\Users\viola\Desktop\ENG_GHM\rigsterragster.wav,VQ,rigster and ragster                ragster and rigster,conj,L,,0,32,32,28,,,,,,,5,4.351,,,2016_Jan_19_1103,31.971980582,binomials,1,r108
C:\Users\viola\Desktop\ENG_GHM\resteacresteact.wav,FCN,resteac and resteact            resteact and resteac,conj,L,,0,33,33,58,,,,,,,4,5.841,,,2016_Jan_19_1103,31.971980582,binomials,1,r108
C:\Users\viola\Desktop\ENG_GHM\ristyreasty.wav,VL,risty-reasty                 reasty-risty,red,L,,0,34,34,34,,,,,,,3,10.585,,,2016_Jan_19_1103,31.971980582,binomials,1,r108
C:\Users\viola\Desktop\ENG_GHM\pleefterplifter.wav,VL,pleefter and plifter                 plifter and pleefter,conj,R,,0,35,35,36,,,,,,,5,9.054,,,2016_Jan_19_1103,31.971980582,binomials,1,r108
C:\Users\viola\Desktop\ENG_GHM\yoglitstoglits.wav,IS,yoglits and toglits                toglits and yoglits,conj,L,,0,36,36,8,,,,,,,4,10.84,,,2016_Jan_19_1103,31.971980582,binomials,1,r108
C:\Users\viola\Desktop\ENG_GHM\sponersoner.wav,ICN,sponer-soner              soner-sponer,red,R,,0,37,37,41,,,,,,,4,5.602,,,2016_Jan_19_1103,31.971980582,binomials,1,r108
C:\Users\viola\Desktop\ENG_GHM\fullsyfoolsy.wav,VL,fullsy and foolsy                    foolsy and fullsy,conj,L,,0,38,38,37,,,,,,,5,9.571,,,2016_Jan_19_1103,31.971980582,binomials,1,r108
C:\Users\viola\Desktop\ENG_GHM\hestamhestad.wav,FS,hestam and hestad            hestad and hestam,conj,R,,0,39,39,17,,,,,,,5,6.461,,,2016_Jan_19_1103,31.971980582,binomials,1,r108
C:\Users\viola\Desktop\ENG_GHM\fibsterfeabster.wav,VL,fibster and feabster               feabster and fibster,conj,L,,0,40,40,38,,,,,,,4,5.622,,,2016_Jan_19_1103,31.971980582,binomials,1,r108
C:\Users\viola\Desktop\ENG_GHM\kizzykrizzy.wav,ICN,kizzy-krizzy               krizzy-kizzy,red,L,,0,41,41,40,,,,,,,5,4.629,,,2016_Jan_19_1103,31.971980582,binomials,1,r108
C:\Users\viola\Desktop\ENG_GHM\bickeshbickel.wav,FS,bickesh-bickell           bickell-bickesh,red,L,,0,42,42,10,,,,,,,2,7.229,,,2016_Jan_19_1103,31.971980582,binomials,1,r108
C:\Users\viola\Desktop\ENG_GHM\fedooptfedoop.wav,FCN,fedoopt-fedoop           fedoop-fedoopt,red,R,,0,43,43,53,,,,,,,5,6.881,,,2016_Jan_19_1103,31.971980582,binomials,1,r108
C:\Users\viola\Desktop\ENG_GHM\lantiesvanties.wav,IS,lanties and vanties               vanties and lanties,conj,L,,0,44,44,6,,,,,,,5,5.85,,,2016_Jan_19_1103,31.971980582,binomials,1,r108
C:\Users\viola\Desktop\ENG_GHM\plengsterpengster.wav,ICN,plenster and penster            penster and plenster,conj,R,,0,45,45,47,,,,,,,2,7.965,,,2016_Jan_19_1103,31.971980582,binomials,1,r108
C:\Users\viola\Desktop\ENG_GHM\spoolkyspullky.wav,VL,spoolky and spullky              spullky and spoolky,conj,R,,0,46,46,35,,,,,,,1,6.617,,,2016_Jan_19_1103,31.971980582,binomials,1,r108
C:\Users\viola\Desktop\ENG_GHM\clazzipclizzip.wav,VQ,clazzip-clizzip               clizzip-clazzip,red,R,,0,47,47,22,,,,,,,2,10.468,,,2016_Jan_19_1103,31.971980582,binomials,1,r108
C:\Users\viola\Desktop\ENG_GHM\lishooclishoon.wav,FS,lishooc-lishoon           lishoon-lishooc,red,L,,0,48,48,12,,,,,,,1,6.227,,,2016_Jan_19_1103,31.971980582,binomials,1,r108
C:\Users\viola\Desktop\ENG_GHM\spettysetty.wav,ICN,spetty and setty                  setty and spetty,conj,R,,0,49,49,45,,,,,,,5,5.044,,,2016_Jan_19_1103,31.971980582,binomials,1,r108
C:\Users\viola\Desktop\ENG_GHM\cleesty-clisty.wav,VL,cleesty-clisty              clisty-cleesty,red,R,,0,50,50,32,,,,,,,2,5.467,,,2016_Jan_19_1103,31.971980582,binomials,1,r108
C:\Users\viola\Desktop\ENG_GHM\beetowbreetow.wav,ICN,beetow and breetow             breetow and beetow,conj,L,,0,51,51,48,,,,,,,5,8.634,,,2016_Jan_19_1103,31.971980582,binomials,1,r108
C:\Users\viola\Desktop\ENG_GHM\lisketlasket.wav,VQ,lisket-lasket                  lasket-lisket,red,L,,0,52,52,20,,,,,,,5,6.005,,,2016_Jan_19_1103,31.971980582,binomials,1,r108
C:\Users\viola\Desktop\ENG_GHM\bockelbeckel.wav,VQ,bockel-beckel                beckel-bockel,red,R,,0,53,53,21,,,,,,,2,5.249,,,2016_Jan_19_1103,31.971980582,binomials,1,r108
C:\Users\viola\Desktop\ENG_GHM\seroapseroapt.wav,FCN,seroap-seroapt          seroapt-seroap,red,L,,0,54,54,50,,,,,,,3,8.795,,,2016_Jan_19_1103,31.971980582,binomials,1,r108
C:\Users\viola\Desktop\ENG_GHM\guskingluskin.wav,ICN,guskin-gluskin            gluskin-guskin,red,L,,0,55,55,42,,,,,,,4,7.371,,,2016_Jan_19_1103,31.971980582,binomials,1,r108
C:\Users\viola\Desktop\ENG_GHM\neasterheaster.wav,IS,neaster and heaster             heaster and neaster,conj,R,,0,56,56,5,,,,,,,4,9.429,,,2016_Jan_19_1103,31.971980582,binomials,1,r108
C:\Users\viola\Desktop\ENG_GHM\deriptderip.wav,FCN,deript and derip                   derip and deript,conj,R,,0,57,57,57,,,,,,,4,6.093,,,2016_Jan_19_1103,31.971980582,binomials,1,r108
C:\Users\viola\Desktop\ENG_GHM\rizeptrizep.wav,FCN,rizept and rizep                   rizep and rizept,conj,R,,0,58,58,55,,,,,,,5,4.808,,,2016_Jan_19_1103,31.971980582,binomials,1,r108
C:\Users\viola\Desktop\ENG_GHM\linooctlinooc.wav,FCN,linooct and linooc                linooc and linooct,conj,R,,0,59,59,59,,,,,,,5,6.513,,,2016_Jan_19_1103,31.971980582,binomials,1,r108
C:\Users\viola\Desktop\ENG_GHM\fiplyfaply.wav,IS/Q,,red,R,fiply-faply                       fiply-biply,,,,,0,0,0,10,,,,,5,8.336,2016_Jan_19_1103,31.971980582,binomials,1,r108
C:\Users\viola\Desktop\ENG_GHM\secklesteckle.wav,IS/ICN,,red,R,seckil-steckil               seckil-beckil,,,,,0,1,1,32,,,,,4,5.975,2016_Jan_19_1103,31.971980582,binomials,1,r108
C:\Users\viola\Desktop\ENG_GHM\teckletackle.wav,ICN/Q,,red,L,teckil-tockil                   teckil-treckil,,,,,0,2,2,23,,,,,5,5.03,2016_Jan_19_1103,31.971980582,binomials,1,r108
C:\Users\viola\Desktop\ENG_GHM\vickervooker.wav,Q/L,,conj,L,vicker and voocker                 vicker and veecker,,,,,0,3,3,5,,,,,2,4.904,2016_Jan_19_1103,31.971980582,binomials,1,r108
C:\Users\viola\Desktop\ENG_GHM\geskyglesky.wav,ICN/Q,,conj,R,gesky and glesky                    gesky and gosky,,,,,0,4,4,29,,,,,1,6.501,2016_Jan_19_1103,31.971980582,binomials,1,r108
C:\Users\viola\Desktop\ENG_GHM\fitlenfritlen.wav,IS/ICN,,conj,R,fitlen and fritlen                        fitlen and kitlen   ,,,,,0,5,5,38,,,,,4,5.385,2016_Jan_19_1103,31.971980582,binomials,1,r108
C:\Users\viola\Desktop\ENG_GHM\liknepleeknep.wav,Q/L,,red,R,liknep-leeknep             liknep-looknep,,,,,0,6,6,2,,,,,5,8.785,2016_Jan_19_1103,31.971980582,binomials,1,r108
C:\Users\viola\Desktop\ENG_GHM\kerishklerish.wav,ICN/Q,,red,R,kerish-klerish                kerish-korish,,,,,0,7,7,21,,,,,1,5.619,2016_Jan_19_1103,31.971980582,binomials,1,r108
C:\Users\viola\Desktop\ENG_GHM\nicketnucket.wav,Q/L,,red,L,nicket-nooket              nicket-neeket,,,,,0,8,8,3,,,,,4,5.371,2016_Jan_19_1103,31.971980582,binomials,1,r108
C:\Users\viola\Desktop\ENG_GHM\sitlenpitlen.wav,IS/Q,,conj,L,sitlen and pitlen                      sitlen and satlen,,,,,0,9,9,16,,,,,4,5.244,2016_Jan_19_1103,31.971980582,binomials,1,r108
C:\Users\viola\Desktop\ENG_GHM\filgerfeelger.wav,Q/L,,conj,R,filger and feelger                    filger and fulger,,,,,0,10,10,8,,,,,6,6.122,2016_Jan_19_1103,31.971980582,binomials,1,r108
C:\Users\viola\Desktop\ENG_GHM\seskykesky.wav,IS/ICN,,conj,L,sesky and kesky                    sesky and slesky ,,,,,0,11,11,35,,,,,5,8.756,2016_Jan_19_1103,31.971980582,binomials,1,r108
C:\Users\viola\Desktop\ENG_GHM\bilnerbulner.wav,Q/L,,red,L,bilner-bullner               bilner-bealner,,,,,0,12,12,1,,,,,4,5.113,2016_Jan_19_1103,31.971980582,binomials,1,r108
C:\Users\viola\Desktop\ENG_GHM\serishderish.wav,IS/Q,,red,L,serish-derish                  serish-sorish,,,,,0,13,13,13,,,,,4,5.184,2016_Jan_19_1103,31.971980582,binomials,1,r108
C:\Users\viola\Desktop\ENG_GHM\figlowfliglow.wav,IS/ICN,,red,R,           figlow-fliglow                      figlow-biglow                               ,,,,,0,14,14,34,,,,,5,4.941,2016_Jan_19_1103,31.971980582,binomials,1,r108
C:\Users\viola\Desktop\ENG_GHM\fettipfottip.wav,IS/Q,,conj,R,fettip and fottip                        fettip and bettip,,,,,0,15,15,17,,,,,2,5.369,2016_Jan_19_1103,31.971980582,binomials,1,r108
C:\Users\viola\Desktop\ENG_GHM\feckildeckil.wav,IS/Q,,red,L,feckil-deckil                   feckil-fockil,,,,,0,16,16,11,,,,,2,5.892,2016_Jan_19_1103,31.971980582,binomials,1,r108
C:\Users\viola\Desktop\ENG_GHM\siglowsaglow.wav,IS/Q,,red,R,siglow-saglow                siglow-kiglow,,,,,0,17,17,14,,,,,5,5.384,2016_Jan_19_1103,31.971980582,binomials,1,r108
C:\Users\viola\Desktop\ENG_GHM\cabickcabeeck.wav,Q/L,,conj,R,cabick  and cabeek               cabick and cabook,,,,,0,18,18,6,,,,,6,4.648,2016_Jan_19_1103,31.971980582,binomials,1,r108
C:\Users\viola\Desktop\ENG_GHM\siply-tiply.wav,IS/ICN,,red,L,siply-tiply                     siply-sliply,,,,,0,19,19,33,,,,,5,5.728,2016_Jan_19_1103,31.971980582,binomials,1,r108
C:\Users\viola\Desktop\ENG_GHM\sipothbipoth.wav,IS/Q,,conj,L,          sipoth and bipoth                 sipoth and sapoth                    ,,,,,0,20,20,18,,,,,1,5.494,2016_Jan_19_1103,31.971980582,binomials,1,r108
C:\Users\viola\Desktop\ENG_GHM\fiprettipret.wav,IS/ICN,,red,L,          fipret-tipret                   fipret-flipret                   ,,,,,0,21,21,31,,,,,2,5.587,2016_Jan_19_1103,31.971980582,binomials,1,r108
C:\Users\viola\Desktop\ENG_GHM\kiplykriply.wav,ICN/Q,,red,R,kiply-kriply                    kiply-kaply,,,,,0,22,22,24,,,,,5,4.58,2016_Jan_19_1103,31.971980582,binomials,1,r108
C:\Users\viola\Desktop\ENG_GHM\berickbereack.wav,Q/L,,red,R,berick-bereek              berick-berook,,,,,0,23,23,4,,,,,6,5.583,2016_Jan_19_1103,31.971980582,binomials,1,r108
C:\Users\viola\Desktop\ENG_GHM\tipothtapoth.wav,ICN/Q,,conj,L,tipoth and tapoth                     tipoth and tripoth,,,,,0,24,24,28,,,,,5,5.943,2016_Jan_19_1103,31.971980582,binomials,1,r108
C:\Users\viola\Desktop\ENG_GHM\feskytesky.wav,IS/Q,,conj,L,fesky and tesky                      fesky and fosky,,,,,0,25,25,19,,,,,3,5.697,2016_Jan_19_1103,31.971980582,binomials,1,r108
C:\Users\viola\Desktop\ENG_GHM\sipretsapret.wav,IS/Q,,red,R,sipret-sapret                  sipret-dipret,,,,,0,26,26,12,,,,,3,6.039,2016_Jan_19_1103,31.971980582,binomials,1,r108
C:\Users\viola\Desktop\ENG_GHM\feblickeblic.wav,IS/Q,,conj,L,feblic and keblic                      feblic and foblic,,,,,0,27,27,15,,,,,5,5.572,2016_Jan_19_1103,31.971980582,binomials,1,r108
C:\Users\viola\Desktop\ENG_GHM\deblicdreblic.wav,ICN/Q,,conj,R,deblic and dreblic                    deblic and doblic,,,,,0,28,28,25,,,,,5,6.334,2016_Jan_19_1103,31.971980582,binomials,1,r108
C:\Users\viola\Desktop\ENG_GHM\fipothflipoth.wav,IS/ICN,,conj,R,fipoth and flipoth                      fipoth and dipoth,,,,,0,29,29,36,,,,,2,8.417,2016_Jan_19_1103,31.971980582,binomials,1,r108
C:\Users\viola\Desktop\ENG_GHM\kettipkrettip.wav,ICN/Q,,conj,R,kettip and krettip                     kettip and kottip,,,,,0,30,30,27,,,,,4,5.234,2016_Jan_19_1103,31.971980582,binomials,1,r108
C:\Users\viola\Desktop\ENG_GHM\feblicteblic.wav,IS/ICN,,conj,L,feblic and teblic                       feblic and fleblic ,,,,,0,31,31,39,,,,,4,5.073,2016_Jan_19_1103,31.971980582,binomials,1,r108
C:\Users\viola\Desktop\ENG_GHM\shicketshucket.wav,Q/L,,conj,L,shicket and shucket              shicket and sheecket,,,,,0,32,32,7,,,,,2,5.115,2016_Jan_19_1103,31.971980582,binomials,1,r108
C:\Users\viola\Desktop\ENG_GHM\settipgettip.wav,IS/ICN,,conj,L,settip and gettip                      settip and slettip,,,,,0,33,33,37,,,,,1,5.128,2016_Jan_19_1103,31.971980582,binomials,1,r108
C:\Users\viola\Desktop\ENG_GHM\ferishflerish.wav,IS/ICN,,red,R,ferish-flerish                 ferish-terish,,,,,0,34,34,30,,,,,5,5.224,2016_Jan_19_1103,31.971980582,binomials,1,r108
C:\Users\viola\Desktop\ENG_GHM\ditlendatlen.wav,ICN/Q,,conj,L,         ditlen and datlen                     ditlen and dritlen           ,,,,,0,35,35,26,,,,,4,5.455,2016_Jan_19_1103,31.971980582,binomials,1,r108
C:\Users\viola\Desktop\ENG_GHM\tiglowtaglow.wav,ICN/Q,,red,L,tiglow-taglow                 tiglow-triglow,,,,,0,36,36,20,,,,,4,7.127,2016_Jan_19_1103,31.971980582,binomials,1,r108
C:\Users\viola\Desktop\ENG_GHM\filkyfealky.wav,Q/L,,red,R,filky-fealky                  filky-fulky,,,,,0,37,37,0,,,,,4,4.253,2016_Jan_19_1103,31.971980582,binomials,1,r108
C:\Users\viola\Desktop\ENG_GHM\diplerdoopler.wav,Q/L,,conj,L,dipler and doopler                  dipler and deepler,,,,,0,38,38,9,,,,,6,5.328,2016_Jan_19_1103,31.971980582,binomials,1,r108
C:\Users\viola\Desktop\ENG_GHM\bipretblipret.wav,ICN/Q,,red,R,bipret-blipret                 bipret-bapret,,,,,0,39,39,22,,,,,4,4.733,2016_Jan_19_1103,31.971980582,binomials,1,r108
