sound,rule,binomials,structure,predicted_order,binomials2,trials.thisRepN,trials.thisTrialN,trials.thisN,trials.thisIndex,trials_3.thisRepN,trials_3.thisTrialN,trials_3.thisN,trials_3.thisIndex,key_resp_4.keys,key_resp_4.rt,rating_2.response,rating_2.rt,rating_5.response,rating_5.rt,date,frameRate,expName,session,participant
,,,,,,,,,,,,,,space,18.3221762475,,,,,2016_Mar_04_1400,32.0424680542,binomials,1,r119
C:\Users\viola\Desktop\ENG_GHM\sponersoner.wav,ICN,sponer-soner              soner-sponer,red,R,,0,0,0,41,,,,,,,5,14.132,,,2016_Mar_04_1400,32.0424680542,binomials,1,r119
C:\Users\viola\Desktop\ENG_GHM\repooctrepooc.wav,FCN,repooct-repooc          repooc-repooct,red,R,,0,1,1,51,,,,,,,2,11.224,,,2016_Mar_04_1400,32.0424680542,binomials,1,r119
C:\Users\viola\Desktop\ENG_GHM\listerleaster.wav,VL,lister-leaster               leaster-lister,red,L,,0,2,2,30,,,,,,,4,9.294,,,2016_Mar_04_1400,32.0424680542,binomials,1,r119
C:\Users\viola\Desktop\ENG_GHM\rebamrebat.wav,FS,rebam-rebat               rebat-rebam,red,R,,0,3,3,13,,,,,,,1,9.211,,,2016_Mar_04_1400,32.0424680542,binomials,1,r119
C:\Users\viola\Desktop\ENG_GHM\redoolredoob.wav,FS,redool and redoob       redoob and redool,conj,R,,0,4,4,15,,,,,,,1,9.318,,,2016_Mar_04_1400,32.0424680542,binomials,1,r119
C:\Users\viola\Desktop\ENG_GHM\loogleboogle.wav,IS,loogle-boogle              boogle-loogle,red,L,,0,5,5,0,,,,,,,5,9.209,,,2016_Mar_04_1400,32.0424680542,binomials,1,r119
C:\Users\viola\Desktop\ENG_GHM\steloatsteloam.wav,FS,steloat and steloam           steloam and steloat,conj,L,,0,6,6,18,,,,,,,5,10.548,,,2016_Mar_04_1400,32.0424680542,binomials,1,r119
C:\Users\viola\Desktop\ENG_GHM\bepleckbeplock.wav,VQ,bepleck and beplock            beplock and bepleck,conj,L,,0,7,7,27,,,,,,,6,9.735,,,2016_Mar_04_1400,32.0424680542,binomials,1,r119
C:\Users\viola\Desktop\ENG_GHM\restellresteg.wav,FS,restell-resteg              resteg-restell,red,R,,0,8,8,11,,,,,,,4,10.635,,,2016_Mar_04_1400,32.0424680542,binomials,1,r119
C:\Users\viola\Desktop\ENG_GHM\bullgorboolgor.wav,VL,bullgor-boolgor            boolgor-bullgor,red,L,,0,9,9,33,,,,,,,1,7.444,,,2016_Mar_04_1400,32.0424680542,binomials,1,r119
C:\Users\viola\Desktop\ENG_GHM\vertylerty.wav,IS,verty-lerty                   lerty-verty,red,R,,0,10,10,1,,,,,,,1,6.474,,,2016_Mar_04_1400,32.0424680542,binomials,1,r119
C:\Users\viola\Desktop\ENG_GHM\bockelbeckel.wav,VQ,bockel-beckel                beckel-bockel,red,R,,0,11,11,21,,,,,,,6,6.894,,,2016_Mar_04_1400,32.0424680542,binomials,1,r119
C:\Users\viola\Desktop\ENG_GHM\clazzipclizzip.wav,VQ,clazzip-clizzip               clizzip-clazzip,red,R,,0,12,12,22,,,,,,,3,9.327,,,2016_Mar_04_1400,32.0424680542,binomials,1,r119
C:\Users\viola\Desktop\ENG_GHM\rigsterragster.wav,VQ,rigster and ragster                ragster and rigster,conj,L,,0,13,13,28,,,,,,,1,8.175,,,2016_Mar_04_1400,32.0424680542,binomials,1,r119
C:\Users\viola\Desktop\ENG_GHM\plibsterpibster.wav,ICN,plibster and pibster              pibster and plibster,conj,R,,0,14,14,49,,,,,,,2,8.178,,,2016_Mar_04_1400,32.0424680542,binomials,1,r119
C:\Users\viola\Desktop\ENG_GHM\deckeldockel.wav,VQ,deckel-dockel                dockel-deckel,red,L,,0,15,15,23,,,,,,,5,7.725,,,2016_Mar_04_1400,32.0424680542,binomials,1,r119
C:\Users\viola\Desktop\ENG_GHM\beroapberoapt.wav,FCN,beroap-beroapt          beroapt-beroap,red,L,,0,16,16,52,,,,,,,2,8.148,,,2016_Mar_04_1400,32.0424680542,binomials,1,r119
C:\Users\viola\Desktop\ENG_GHM\rizeptrizep.wav,FCN,rizept and rizep                   rizep and rizept,conj,R,,0,17,17,55,,,,,,,6,8.351,,,2016_Mar_04_1400,32.0424680542,binomials,1,r119
C:\Users\viola\Desktop\ENG_GHM\resteacresteact.wav,FCN,resteac and resteact            resteact and resteac,conj,L,,0,18,18,58,,,,,,,2,8.224,,,2016_Mar_04_1400,32.0424680542,binomials,1,r119
C:\Users\viola\Desktop\ENG_GHM\spoolkyspullky.wav,VL,spoolky and spullky              spullky and spoolky,conj,R,,0,19,19,35,,,,,,,2,10.178,,,2016_Mar_04_1400,32.0424680542,binomials,1,r119
C:\Users\viola\Desktop\ENG_GHM\pleefterplifter.wav,VL,pleefter and plifter                 plifter and pleefter,conj,R,,0,20,20,36,,,,,,,3,8.291,,,2016_Mar_04_1400,32.0424680542,binomials,1,r119
C:\Users\viola\Desktop\ENG_GHM\deriptderip.wav,FCN,deript and derip                   derip and deript,conj,R,,0,21,21,57,,,,,,,5,7.666,,,2016_Mar_04_1400,32.0424680542,binomials,1,r119
C:\Users\viola\Desktop\ENG_GHM\fedooptfedoop.wav,FCN,fedoopt-fedoop           fedoop-fedoopt,red,R,,0,22,22,53,,,,,,,6,8.12,,,2016_Mar_04_1400,32.0424680542,binomials,1,r119
C:\Users\viola\Desktop\ENG_GHM\lisketlasket.wav,VQ,lisket-lasket                  lasket-lisket,red,L,,0,23,23,20,,,,,,,5,7.524,,,2016_Mar_04_1400,32.0424680542,binomials,1,r119
C:\Users\viola\Desktop\ENG_GHM\spettysetty.wav,ICN,spetty and setty                  setty and spetty,conj,R,,0,24,24,45,,,,,,,3,9.869,,,2016_Mar_04_1400,32.0424680542,binomials,1,r119
C:\Users\viola\Desktop\ENG_GHM\pichoogpichoon.wav,FS,pichoog and pichoon          pichoon and pichoog,conj,L,,0,25,25,16,,,,,,,1,8.459,,,2016_Mar_04_1400,32.0424680542,binomials,1,r119
C:\Users\viola\Desktop\ENG_GHM\fibsterfeabster.wav,VL,fibster and feabster               feabster and fibster,conj,L,,0,26,26,38,,,,,,,2,8.614,,,2016_Mar_04_1400,32.0424680542,binomials,1,r119
C:\Users\viola\Desktop\ENG_GHM\deefelheefel.wav,IS,deefel-heefel               heefel-deefel,red,R,,0,27,27,3,,,,,,,3,8.344,,,2016_Mar_04_1400,32.0424680542,binomials,1,r119
C:\Users\viola\Desktop\ENG_GHM\revidrevad.wav,VQ,revid-revad                     revad-revid,red,L,,0,28,28,24,,,,,,,1,9.321,,,2016_Mar_04_1400,32.0424680542,binomials,1,r119
C:\Users\viola\Desktop\ENG_GHM\miscottmiscon.wav,FS,miscott-miscon          miscon-miscott,red,L,,0,29,29,14,,,,,,,4,15.766,,,2016_Mar_04_1400,32.0424680542,binomials,1,r119
C:\Users\viola\Desktop\ENG_GHM\croosetcooset.wav,ICN,crooset-cooset           cooset-crooset,red,R,,0,30,30,43,,,,,,,2,14.637,,,2016_Mar_04_1400,32.0424680542,binomials,1,r119
C:\Users\viola\Desktop\ENG_GHM\loskylesky.wav,VQ,losky and lesky                   lesky and losky,conj,R,,0,31,31,29,,,,,,,5,7.904,,,2016_Mar_04_1400,32.0424680542,binomials,1,r119
C:\Users\viola\Desktop\ENG_GHM\lomickgomick.wav,IS,lomick-gomick            gomick-lomick,red,L,,0,32,32,4,,,,,,,6,10.824,,,2016_Mar_04_1400,32.0424680542,binomials,1,r119
C:\Users\viola\Desktop\ENG_GHM\sladvinslidvin.wav,VQ,sladvin and slidvin                slidvin and sladvin,conj,R,,0,33,33,26,,,,,,,5,9.022,,,2016_Mar_04_1400,32.0424680542,binomials,1,r119
C:\Users\viola\Desktop\ENG_GHM\yoglitstoglits.wav,IS,yoglits and toglits                toglits and yoglits,conj,L,,0,34,34,8,,,,,,,1,9.337,,,2016_Mar_04_1400,32.0424680542,binomials,1,r119
C:\Users\viola\Desktop\ENG_GHM\sigglestiggle.wav,ICN,siggle and stiggle                stiggle and siggle,conj,L,,0,35,35,46,,,,,,,4,10.148,,,2016_Mar_04_1400,32.0424680542,binomials,1,r119
C:\Users\viola\Desktop\ENG_GHM\bickeshbickel.wav,FS,bickesh-bickell           bickell-bickesh,red,L,,0,36,36,10,,,,,,,5,7.995,,,2016_Mar_04_1400,32.0424680542,binomials,1,r119
C:\Users\viola\Desktop\ENG_GHM\cleesty-clisty.wav,VL,cleesty-clisty              clisty-cleesty,red,R,,0,37,37,32,,,,,,,2,13.032,,,2016_Mar_04_1400,32.0424680542,binomials,1,r119
C:\Users\viola\Desktop\ENG_GHM\poolsterpullster.wav,VL,poolster-pullster          pullster-poolster,red,R,,0,38,38,31,,,,,,,1,13.927,,,2016_Mar_04_1400,32.0424680542,binomials,1,r119
C:\Users\viola\Desktop\ENG_GHM\tefoiltefoig.wav,FS,tefoil and tefoig                  tefoig and tefoil,conj,R,,0,39,39,19,,,,,,,6,9.525,,,2016_Mar_04_1400,32.0424680542,binomials,1,r119
C:\Users\viola\Desktop\ENG_GHM\kizzykrizzy.wav,ICN,kizzy-krizzy               krizzy-kizzy,red,L,,0,40,40,40,,,,,,,4,10.443,,,2016_Mar_04_1400,32.0424680542,binomials,1,r119
C:\Users\viola\Desktop\ENG_GHM\booteecboteect.wav,FCN,boteec and boteect              boteect and boteec,conj,L,,0,41,41,56,,,,,,,1,7.309,,,2016_Mar_04_1400,32.0424680542,binomials,1,r119
C:\Users\viola\Desktop\ENG_GHM\stockelsteckel.wav,VQ,stockel and steckel             steckel and stockel,conj,R,,0,42,42,25,,,,,,,5,14.792,,,2016_Mar_04_1400,32.0424680542,binomials,1,r119
C:\Users\viola\Desktop\ENG_GHM\ristyreasty.wav,VL,risty-reasty                 reasty-risty,red,L,,0,43,43,34,,,,,,,5,9.464,,,2016_Mar_04_1400,32.0424680542,binomials,1,r119
C:\Users\viola\Desktop\ENG_GHM\plengsterpengster.wav,ICN,plenster and penster            penster and plenster,conj,R,,0,44,44,47,,,,,,,1,8.595,,,2016_Mar_04_1400,32.0424680542,binomials,1,r119
C:\Users\viola\Desktop\ENG_GHM\linooctlinooc.wav,FCN,linooct and linooc                linooc and linooct,conj,R,,0,45,45,59,,,,,,,6,8.232,,,2016_Mar_04_1400,32.0424680542,binomials,1,r119
C:\Users\viola\Desktop\ENG_GHM\lishooclishoon.wav,FS,lishooc-lishoon           lishoon-lishooc,red,L,,0,46,46,12,,,,,,,4,10.479,,,2016_Mar_04_1400,32.0424680542,binomials,1,r119
C:\Users\viola\Desktop\ENG_GHM\revecrevect.wav,FCN,revec-revect               revect-revec,red,L,,0,47,47,54,,,,,,,1,7.543,,,2016_Mar_04_1400,32.0424680542,binomials,1,r119
C:\Users\viola\Desktop\ENG_GHM\horketnorket.wav,IS,horkit-norkit                norkit-horkit,red,L,,0,48,48,2,,,,,,,3,12.639,,,2016_Mar_04_1400,32.0424680542,binomials,1,r119
C:\Users\viola\Desktop\ENG_GHM\neasterheaster.wav,IS,neaster and heaster             heaster and neaster,conj,R,,0,49,49,5,,,,,,,2,13.349,,,2016_Mar_04_1400,32.0424680542,binomials,1,r119
C:\Users\viola\Desktop\ENG_GHM\lantiesvanties.wav,IS,lanties and vanties               vanties and lanties,conj,L,,0,50,50,6,,,,,,,4,10.236,,,2016_Mar_04_1400,32.0424680542,binomials,1,r119
C:\Users\viola\Desktop\ENG_GHM\befoolpbefulp.wav,VL,befoolp and befulp                 befulp and befoolp,conj,R,,0,51,51,39,,,,,,,1,8.901,,,2016_Mar_04_1400,32.0424680542,binomials,1,r119
C:\Users\viola\Desktop\ENG_GHM\hestamhestad.wav,FS,hestam and hestad            hestad and hestam,conj,R,,0,52,52,17,,,,,,,2,10.142,,,2016_Mar_04_1400,32.0424680542,binomials,1,r119
C:\Users\viola\Desktop\ENG_GHM\teskerresker.wav,IS,            tesker and resker               resker and tesker                 ,conj,R,,0,53,53,7,,,,,,,3,8.647,,,2016_Mar_04_1400,32.0424680542,binomials,1,r119
C:\Users\viola\Desktop\ENG_GHM\seroapseroapt.wav,FCN,seroap-seroapt          seroapt-seroap,red,L,,0,54,54,50,,,,,,,1,8.46,,,2016_Mar_04_1400,32.0424680542,binomials,1,r119
C:\Users\viola\Desktop\ENG_GHM\fullsyfoolsy.wav,VL,fullsy and foolsy                    foolsy and fullsy,conj,L,,0,55,55,37,,,,,,,2,14.142,,,2016_Mar_04_1400,32.0424680542,binomials,1,r119
C:\Users\viola\Desktop\ENG_GHM\feckinfreckin.wav,ICN,feckin-freckin              freckin-feckin,red,L,,0,56,56,44,,,,,,,1,7.387,,,2016_Mar_04_1400,32.0424680542,binomials,1,r119
C:\Users\viola\Desktop\ENG_GHM\beetowbreetow.wav,ICN,beetow and breetow             breetow and beetow,conj,L,,0,57,57,48,,,,,,,2,7.79,,,2016_Mar_04_1400,32.0424680542,binomials,1,r119
C:\Users\viola\Desktop\ENG_GHM\biscowwiscow.wav,IS,biscow and wiscow              wiscow and biscow,conj,R,,0,58,58,9,,,,,,,2,7.779,,,2016_Mar_04_1400,32.0424680542,binomials,1,r119
C:\Users\viola\Desktop\ENG_GHM\guskingluskin.wav,ICN,guskin-gluskin            gluskin-guskin,red,L,,0,59,59,42,,,,,,,4,13.143,,,2016_Mar_04_1400,32.0424680542,binomials,1,r119
C:\Users\viola\Desktop\ENG_GHM\ditlendatlen.wav,ICN/Q,,conj,L,         ditlen and datlen                     ditlen and dritlen           ,,,,,0,0,0,26,,,,,2,12.081,2016_Mar_04_1400,32.0424680542,binomials,1,r119
C:\Users\viola\Desktop\ENG_GHM\fiplyfaply.wav,IS/Q,,red,R,fiply-faply                       fiply-biply,,,,,0,1,1,10,,,,,5,12.082,2016_Mar_04_1400,32.0424680542,binomials,1,r119
C:\Users\viola\Desktop\ENG_GHM\sipretsapret.wav,IS/Q,,red,R,sipret-sapret                  sipret-dipret,,,,,0,2,2,12,,,,,3,8.332,2016_Mar_04_1400,32.0424680542,binomials,1,r119
C:\Users\viola\Desktop\ENG_GHM\filgerfeelger.wav,Q/L,,conj,R,filger and feelger                    filger and fulger,,,,,0,3,3,8,,,,,5,14.48,2016_Mar_04_1400,32.0424680542,binomials,1,r119
C:\Users\viola\Desktop\ENG_GHM\feckildeckil.wav,IS/Q,,red,L,feckil-deckil                   feckil-fockil,,,,,0,4,4,11,,,,,1,7.355,2016_Mar_04_1400,32.0424680542,binomials,1,r119
C:\Users\viola\Desktop\ENG_GHM\siply-tiply.wav,IS/ICN,,red,L,siply-tiply                     siply-sliply,,,,,0,5,5,33,,,,,1,11.534,2016_Mar_04_1400,32.0424680542,binomials,1,r119
C:\Users\viola\Desktop\ENG_GHM\settipgettip.wav,IS/ICN,,conj,L,settip and gettip                      settip and slettip,,,,,0,6,6,37,,,,,1,8.362,2016_Mar_04_1400,32.0424680542,binomials,1,r119
C:\Users\viola\Desktop\ENG_GHM\kerishklerish.wav,ICN/Q,,red,R,kerish-klerish                kerish-korish,,,,,0,7,7,21,,,,,3,11.194,2016_Mar_04_1400,32.0424680542,binomials,1,r119
C:\Users\viola\Desktop\ENG_GHM\kiplykriply.wav,ICN/Q,,red,R,kiply-kriply                    kiply-kaply,,,,,0,8,8,24,,,,,3,8.182,2016_Mar_04_1400,32.0424680542,binomials,1,r119
C:\Users\viola\Desktop\ENG_GHM\fettipfottip.wav,IS/Q,,conj,R,fettip and fottip                        fettip and bettip,,,,,0,9,9,17,,,,,5,8.668,2016_Mar_04_1400,32.0424680542,binomials,1,r119
C:\Users\viola\Desktop\ENG_GHM\ferishflerish.wav,IS/ICN,,red,R,ferish-flerish                 ferish-terish,,,,,0,10,10,30,,,,,6,8.373,2016_Mar_04_1400,32.0424680542,binomials,1,r119
C:\Users\viola\Desktop\ENG_GHM\siglowsaglow.wav,IS/Q,,red,R,siglow-saglow                siglow-kiglow,,,,,0,11,11,14,,,,,6,7.985,2016_Mar_04_1400,32.0424680542,binomials,1,r119
C:\Users\viola\Desktop\ENG_GHM\deblicdreblic.wav,ICN/Q,,conj,R,deblic and dreblic                    deblic and doblic,,,,,0,12,12,25,,,,,2,10.701,2016_Mar_04_1400,32.0424680542,binomials,1,r119
C:\Users\viola\Desktop\ENG_GHM\berickbereack.wav,Q/L,,red,R,berick-bereek              berick-berook,,,,,0,13,13,4,,,,,2,8.066,2016_Mar_04_1400,32.0424680542,binomials,1,r119
C:\Users\viola\Desktop\ENG_GHM\feskytesky.wav,IS/Q,,conj,L,fesky and tesky                      fesky and fosky,,,,,0,14,14,19,,,,,1,9.52,2016_Mar_04_1400,32.0424680542,binomials,1,r119
C:\Users\viola\Desktop\ENG_GHM\feblicteblic.wav,IS/ICN,,conj,L,feblic and teblic                       feblic and fleblic ,,,,,0,15,15,39,,,,,1,9.2,2016_Mar_04_1400,32.0424680542,binomials,1,r119
C:\Users\viola\Desktop\ENG_GHM\nicketnucket.wav,Q/L,,red,L,nicket-nooket              nicket-neeket,,,,,0,16,16,3,,,,,1,5.926,2016_Mar_04_1400,32.0424680542,binomials,1,r119
C:\Users\viola\Desktop\ENG_GHM\fitlenfritlen.wav,IS/ICN,,conj,R,fitlen and fritlen                        fitlen and kitlen   ,,,,,0,17,17,38,,,,,5,9.688,2016_Mar_04_1400,32.0424680542,binomials,1,r119
C:\Users\viola\Desktop\ENG_GHM\fipothflipoth.wav,IS/ICN,,conj,R,fipoth and flipoth                      fipoth and dipoth,,,,,0,18,18,36,,,,,6,9.158,2016_Mar_04_1400,32.0424680542,binomials,1,r119
C:\Users\viola\Desktop\ENG_GHM\feblickeblic.wav,IS/Q,,conj,L,feblic and keblic                      feblic and foblic,,,,,0,19,19,15,,,,,1,4.945,2016_Mar_04_1400,32.0424680542,binomials,1,r119
C:\Users\viola\Desktop\ENG_GHM\sipothbipoth.wav,IS/Q,,conj,L,          sipoth and bipoth                 sipoth and sapoth                    ,,,,,0,20,20,18,,,,,2,5.745,2016_Mar_04_1400,32.0424680542,binomials,1,r119
C:\Users\viola\Desktop\ENG_GHM\figlowfliglow.wav,IS/ICN,,red,R,           figlow-fliglow                      figlow-biglow                               ,,,,,0,21,21,34,,,,,4,6.357,2016_Mar_04_1400,32.0424680542,binomials,1,r119
C:\Users\viola\Desktop\ENG_GHM\cabickcabeeck.wav,Q/L,,conj,R,cabick  and cabeek               cabick and cabook,,,,,0,22,22,6,,,,,3,7.821,2016_Mar_04_1400,32.0424680542,binomials,1,r119
C:\Users\viola\Desktop\ENG_GHM\kettipkrettip.wav,ICN/Q,,conj,R,kettip and krettip                     kettip and kottip,,,,,0,23,23,27,,,,,4,9.039,2016_Mar_04_1400,32.0424680542,binomials,1,r119
C:\Users\viola\Desktop\ENG_GHM\teckletackle.wav,ICN/Q,,red,L,teckil-tockil                   teckil-treckil,,,,,0,24,24,23,,,,,4,9.206,2016_Mar_04_1400,32.0424680542,binomials,1,r119
C:\Users\viola\Desktop\ENG_GHM\geskyglesky.wav,ICN/Q,,conj,R,gesky and glesky                    gesky and gosky,,,,,0,25,25,29,,,,,4,9.972,2016_Mar_04_1400,32.0424680542,binomials,1,r119
C:\Users\viola\Desktop\ENG_GHM\vickervooker.wav,Q/L,,conj,L,vicker and voocker                 vicker and veecker,,,,,0,26,26,5,,,,,3,8.649,2016_Mar_04_1400,32.0424680542,binomials,1,r119
C:\Users\viola\Desktop\ENG_GHM\bipretblipret.wav,ICN/Q,,red,R,bipret-blipret                 bipret-bapret,,,,,0,27,27,22,,,,,4,10.029,2016_Mar_04_1400,32.0424680542,binomials,1,r119
C:\Users\viola\Desktop\ENG_GHM\tiglowtaglow.wav,ICN/Q,,red,L,tiglow-taglow                 tiglow-triglow,,,,,0,28,28,20,,,,,2,6.282,2016_Mar_04_1400,32.0424680542,binomials,1,r119
C:\Users\viola\Desktop\ENG_GHM\liknepleeknep.wav,Q/L,,red,R,liknep-leeknep             liknep-looknep,,,,,0,29,29,2,,,,,5,8.111,2016_Mar_04_1400,32.0424680542,binomials,1,r119
C:\Users\viola\Desktop\ENG_GHM\sitlenpitlen.wav,IS/Q,,conj,L,sitlen and pitlen                      sitlen and satlen,,,,,0,30,30,16,,,,,1,8.086,2016_Mar_04_1400,32.0424680542,binomials,1,r119
C:\Users\viola\Desktop\ENG_GHM\shicketshucket.wav,Q/L,,conj,L,shicket and shucket              shicket and sheecket,,,,,0,31,31,7,,,,,1,7.835,2016_Mar_04_1400,32.0424680542,binomials,1,r119
C:\Users\viola\Desktop\ENG_GHM\bilnerbulner.wav,Q/L,,red,L,bilner-bullner               bilner-bealner,,,,,0,32,32,1,,,,,2,11.227,2016_Mar_04_1400,32.0424680542,binomials,1,r119
C:\Users\viola\Desktop\ENG_GHM\secklesteckle.wav,IS/ICN,,red,R,seckil-steckil               seckil-beckil,,,,,0,33,33,32,,,,,6,7.746,2016_Mar_04_1400,32.0424680542,binomials,1,r119
C:\Users\viola\Desktop\ENG_GHM\seskykesky.wav,IS/ICN,,conj,L,sesky and kesky                    sesky and slesky ,,,,,0,34,34,35,,,,,1,9.376,2016_Mar_04_1400,32.0424680542,binomials,1,r119
C:\Users\viola\Desktop\ENG_GHM\tipothtapoth.wav,ICN/Q,,conj,L,tipoth and tapoth                     tipoth and tripoth,,,,,0,35,35,28,,,,,2,7.485,2016_Mar_04_1400,32.0424680542,binomials,1,r119
C:\Users\viola\Desktop\ENG_GHM\diplerdoopler.wav,Q/L,,conj,L,dipler and doopler                  dipler and deepler,,,,,0,36,36,9,,,,,3,10.14,2016_Mar_04_1400,32.0424680542,binomials,1,r119
C:\Users\viola\Desktop\ENG_GHM\filkyfealky.wav,Q/L,,red,R,filky-fealky                  filky-fulky,,,,,0,37,37,0,,,,,3,11.359,2016_Mar_04_1400,32.0424680542,binomials,1,r119
C:\Users\viola\Desktop\ENG_GHM\serishderish.wav,IS/Q,,red,L,serish-derish                  serish-sorish,,,,,0,38,38,13,,,,,1,7.074,2016_Mar_04_1400,32.0424680542,binomials,1,r119
C:\Users\viola\Desktop\ENG_GHM\fiprettipret.wav,IS/ICN,,red,L,          fipret-tipret                   fipret-flipret                   ,,,,,0,39,39,31,,,,,4,11.991,2016_Mar_04_1400,32.0424680542,binomials,1,r119
