sound,predicted_order,structure,binomials,misc,rule,trials.thisRepN,trials.thisTrialN,trials.thisN,trials.thisIndex,trials_3.thisRepN,trials_3.thisTrialN,trials_3.thisN,trials_3.thisIndex,key_resp_2.keys,key_resp_2.rt,rating.response,rating.rt,rating_2.response,rating_2.rt,date,frameRate,expName,session,participant
,,,,,,,,,,,,,,space,22.620908,,,,,2015_Dec_29_1156,31.99063746,binobino,1,r302
C:\Users\viola\Desktop\FR_GHM\rouzaperouzaille.wav,L,conj,ni rouzape ni rouzaille         ni rouzaille ni rouzape,diff,FS,0,0,0,18,,,,,,,4,31.392,,,2015_Dec_29_1156,31.99063746,binobino,1,r302
C:\Users\viola\Desktop\FR_GHM\fuglatefuglite.wav,R,conj,ni fuglate ni fuglite               ni fuglite ni fuglate,h,VQ,0,1,1,36,,,,,,,4,54.283,,,2015_Dec_29_1156,31.99063746,binobino,1,r302
C:\Users\viola\Desktop\FR_GHM\davailedavaisse.wav,R,conj,ni davaile ni davaisse          ni davaisse ni davaile,same,FS,0,2,2,15,,,,,,,2,21.022,,,2015_Dec_29_1156,31.99063746,binobino,1,r302
C:\Users\viola\Desktop\FR_GHM\plirotpirot.wav,R,conj,ni plirot ni pirot                  ni pirot ni plirot,nan,ICN,0,3,3,47,,,,,,,2,25.707,,,2015_Dec_29_1156,31.99063746,binobino,1,r302
C:\Users\viola\Desktop\FR_GHM\trivaipetivaipe.wav,R,conj,ni trivaipe ni tivaipe            ni tivaipe ni trivaipe,nan,ICN,0,4,4,45,,,,,,,1,17.982,,,2015_Dec_29_1156,31.99063746,binobino,1,r302
C:\Users\viola\Desktop\FR_GHM\noupetgoupet.wav,L,red,noupet-goupet          goupet-noupet,same,IS,0,5,5,0,,,,,,,5,22.004,,,2015_Dec_29_1156,31.99063746,binobino,1,r302
C:\Users\viola\Desktop\FR_GHM\rataferatalle.wav,L,red,ratafe-ratalle             ratalle-ratafe,same,FS,0,6,6,14,,,,,,,3,32.953,,,2015_Dec_29_1156,31.99063746,binobino,1,r302
C:\Users\viola\Desktop\FR_GHM\capaiccapaicte.wav,L,conj,ni capaic ni capaicte          ni capaicte ni capaic,stop,FCN,0,7,7,58,,,,,,,2,13.136,,,2015_Dec_29_1156,31.99063746,binobino,1,r302
C:\Users\viola\Desktop\FR_GHM\guinotterinotte.wav,R,red,guinotte-rinotte         rinotte-guinotte,diff,IS,0,8,8,3,,,,,,,1,10.163,,,2015_Dec_29_1156,31.99063746,binobino,1,r302
C:\Users\viola\Desktop\FR_GHM\cadaillecadape.wav,R,conj,ni cadaille ni cadape           ni cadape ni cadaille,diff,FS,0,9,9,17,,,,,,,5,15.28,,,2015_Dec_29_1156,31.99063746,binobino,1,r302
C:\Users\viola\Desktop\FR_GHM\gouvactegouvac.wav,R,conj,ni gouvacte ni gouvac         ni gouvac ni gouvacte,stop,FCN,0,10,10,55,,,,,,,4,35.49,,,2015_Dec_29_1156,31.99063746,binobino,1,r302
C:\Users\viola\Desktop\FR_GHM\chouvetrouvet.wav,R,conj,ni chouvet ni rouvet             ni rouvet ni chouvet,same,IS,0,11,11,9,,,,,,,2,21.063,,,2015_Dec_29_1156,31.99063746,binobino,1,r302
C:\Users\viola\Desktop\FR_GHM\rupottetupotte.wav,L,red,rupotte-tupotte          tupotte-rupotte,diff,IS,0,12,12,1,,,,,,,1,12.211,,,2015_Dec_29_1156,31.99063746,binobino,1,r302
C:\Users\viola\Desktop\FR_GHM\madetgadet.wav,L,red,madet-gadet            gadet-madet,same,IS,0,13,13,4,,,,,,,1,13.932,,,2015_Dec_29_1156,31.99063746,binobino,1,r302
C:\Users\viola\Desktop\FR_GHM\talaiquetalaime.wav,L,red,talaique-talaime        talaime-talaique        ,same,FS,0,14,14,12,,,,,,,3,23.217,,,2015_Dec_29_1156,31.99063746,binobino,1,r302
C:\Users\viola\Desktop\FR_GHM\ranaidecanaide.wav,L,conj,ni ranaide ni canaide           ni canaide ni ranaide,diff,IS,0,15,15,6,,,,,,,2,24.775,,,2015_Dec_29_1156,31.99063746,binobino,1,r302
C:\Users\viola\Desktop\FR_GHM\gavaipemavaipe.wav,R,conj,ni gavaipe ni mavaipe          ni mavaipe ni gavaipe,same,IS,0,16,16,7,,,,,,,2,16.824,,,2015_Dec_29_1156,31.99063746,binobino,1,r302
C:\Users\viola\Desktop\FR_GHM\chavintechavette.wav,R,red,chavinte-chavette      chavette-chavinte,cl,VN,0,17,17,22,,,,,,,2,23.807,,,2015_Dec_29_1156,31.99063746,binobino,1,r302
C:\Users\viola\Desktop\FR_GHM\traplintetraplette.wav,R,conj,ni traplinte ni traplette         ni traplette ni traplinte,cl,VN,0,18,18,26,,,,,,,5,37.375,,,2015_Dec_29_1156,31.99063746,binobino,1,r302
C:\Users\viola\Desktop\FR_GHM\plamotteplamette.wav,R,conj,ni plamotte ni plamette       ni plamette ni plamotte,a,VQ,0,19,19,39,,,,,,,2,18.272,,,2015_Dec_29_1156,31.99063746,binobino,1,r302
C:\Users\viola\Desktop\FR_GHM\livottedivotte.wav,L,conj,ni livotte ni divotte               ni divotte ni livotte,diff,IS,0,20,20,8,,,,,,,4,13.996,,,2015_Dec_29_1156,31.99063746,binobino,1,r302
C:\Users\viola\Desktop\FR_GHM\padafepadafre.wav,L,red,padafe-padafre           padafre-padafe  ,fr,FCN,0,21,21,50,,,,,,,3,28.796,,,2015_Dec_29_1156,31.99063746,binobino,1,r302
C:\Users\viola\Desktop\FR_GHM\taguelague.wav,R,red,taguet-laguet            laguet-taguet,diff,IS,0,22,22,2,,,,,,,1,7.4,,,2015_Dec_29_1156,31.99063746,binobino,1,r302
C:\Users\viola\Desktop\FR_GHM\clavrercavrer.wav,R,conj,ni clavrer ni cavrer             ni cavrer ni clavrer,nan,ICN,0,23,23,49,,,,,,,2,18.497,,,2015_Dec_29_1156,31.99063746,binobino,1,r302
C:\Users\viola\Desktop\FR_GHM\tuguettruguet.wav,L,red,tuguet-truguet            truguet-tuguet,nan,ICN,0,24,24,44,,,,,,,5,13.75,,,2015_Dec_29_1156,31.99063746,binobino,1,r302
C:\Users\viola\Desktop\FR_GHM\ladacladacte.wav,L,conj,ni ladac ni ladacte             ni ladacte ni ladac,stop,FCN,0,25,25,56,,,,,,,5,15.2,,,2015_Dec_29_1156,31.99063746,binobino,1,r302
C:\Users\viola\Desktop\FR_GHM\cazibecazille.wav,L,red,cazibe-cazille           cazille-cazibe,diff,FS,0,26,26,10,,,,,,,5,22.322,,,2015_Dec_29_1156,31.99063746,binobino,1,r302
C:\Users\viola\Desktop\FR_GHM\goudintegoudette.wav,R,red,goudinte-goudette     goudette-goudinte,cl,VN,0,27,27,20,,,,,,,1,31.648,,,2015_Dec_29_1156,31.99063746,binobino,1,r302
C:\Users\viola\Desktop\FR_GHM\flitaflitan.wav,L,conj,ni flita ni flitan                    ni flitan ni flita,op,VN,0,28,28,29,,,,,,,6,12.635,,,2015_Dec_29_1156,31.99063746,binobino,1,r302
C:\Users\viola\Desktop\FR_GHM\codellecrodelle.wav,L,red,codelle-crodelle         crodelle-codelle,nan,ICN,0,29,29,40,,,,,,,6,15.396,,,2015_Dec_29_1156,31.99063746,binobino,1,r302
C:\Users\viola\Desktop\FR_GHM\dalaifredalaife.wav,R,conj,ni dalaifre ni dalaife            ni dalaife ni dalaifre,fr,FCN,0,30,30,57,,,,,,,5,26.174,,,2015_Dec_29_1156,31.99063746,binobino,1,r302
C:\Users\viola\Desktop\FR_GHM\coudincloudin.wav,L,conj,ni coudin ni cloudin           ni cloudin ni coudin,nan,ICN,0,31,31,48,,,,,,,1,29.052,,,2015_Dec_29_1156,31.99063746,binobino,1,r302
C:\Users\viola\Desktop\FR_GHM\ridacteridac.wav,R,red,ridacte-ridac              ridac-ridacte,stop,FCN,0,32,32,51,,,,,,,4,15.332,,,2015_Dec_29_1156,31.99063746,binobino,1,r302
C:\Users\viola\Desktop\FR_GHM\vulpontevulpotte.wav,R,conj,ni vulponte ni vulpotte         ni vulpotte ni vulponte,cl,VN,0,33,33,28,,,,,,,2,17.012,,,2015_Dec_29_1156,31.99063746,binobino,1,r302
C:\Users\viola\Desktop\FR_GHM\padaquepadique.wav,R,red,padaque-padique      padique-padaque,h,VQ,0,34,34,32,,,,,,,5,14.908,,,2015_Dec_29_1156,31.99063746,binobino,1,r302
C:\Users\viola\Desktop\FR_GHM\ganoucteganouc.wav,R,red,ganoucte-ganouc       ganouc-ganoucte,stop,FCN,0,35,35,53,,,,,,,6,21.203,,,2015_Dec_29_1156,31.99063746,binobino,1,r302
C:\Users\viola\Desktop\FR_GHM\tilafretilafe.wav,R,conj,ni tilafre ni tilafe                 ni tilafe ni tilafre,fr,FCN,0,36,36,59,,,,,,,5,17.993,,,2015_Dec_29_1156,31.99063746,binobino,1,r302
C:\Users\viola\Desktop\FR_GHM\fluponfupon.wav,R,red,flupon-fupon              fupon-flupon,nan,ICN,0,37,37,41,,,,,,,5,28.136,,,2015_Dec_29_1156,31.99063746,binobino,1,r302
C:\Users\viola\Desktop\FR_GHM\cralontecralotte.wav,R,red,cralonte-cralotte        cralotte-cralonte,cl,VN,0,38,38,24,,,,,,,4,30.435,,,2015_Dec_29_1156,31.99063746,binobino,1,r302
C:\Users\viola\Desktop\FR_GHM\loubotteloubette.wav,R,red,loubotte-loubette       loubette-loubotte,a,VQ,0,39,39,31,,,,,,,4,38.626,,,2015_Dec_29_1156,31.99063746,binobino,1,r302
C:\Users\viola\Desktop\FR_GHM\trapiletrapale.wav,L,conj,ni trapile ni trapale              ni trapale ni trapile,h,VQ,0,40,40,38,,,,,,,3,21.84,,,2015_Dec_29_1156,31.99063746,binobino,1,r302
C:\Users\viola\Desktop\FR_GHM\brezouillebezouille.wav,R,red,brezouille-bezouille    bezouille-brezouille,nan,ICN,0,41,41,43,,,,,,,4,40.594,,,2015_Dec_29_1156,31.99063746,binobino,1,r302
C:\Users\viola\Desktop\FR_GHM\raffotteraffette.wav,R,conj,ni raffotte ni raffette             ni raffette ni raffotte,a,VQ,0,42,42,35,,,,,,,3,17.572,,,2015_Dec_29_1156,31.99063746,binobino,1,r302
C:\Users\viola\Desktop\FR_GHM\gonaisgonin.wav,L,red,gonais-gonin             gonin-gonais,op,VN,0,43,43,23,,,,,,,1,14.735,,,2015_Dec_29_1156,31.99063746,binobino,1,r302
C:\Users\viola\Desktop\FR_GHM\salainestalaine.wav,L,red,salaine-stalaine         stalaine-salaine,nan,ICN,0,44,44,42,,,,,,,3,23.517,,,2015_Dec_29_1156,31.99063746,binobino,1,r302
C:\Users\viola\Desktop\FR_GHM\ranietteraniotte.wav,L,red,raniette-raniotte        raniotte-raniette,a,VQ,0,45,45,33,,,,,,,2,23.283,,,2015_Dec_29_1156,31.99063746,binobino,1,r302
C:\Users\viola\Desktop\FR_GHM\stolastolan.wav,L,conj,ni stola ni stolan                ni stolan ni stola,op,VN,0,46,46,25,,,,,,,5,30.601,,,2015_Dec_29_1156,31.99063746,binobino,1,r302
C:\Users\viola\Desktop\FR_GHM\calitecalate.wav,L,red,calite-calate             calate-calite,h,VQ,0,47,47,30,,,,,,,2,10.141,,,2015_Dec_29_1156,31.99063746,binobino,1,r302
C:\Users\viola\Desktop\FR_GHM\tipametipague.wav,R,conj,ni tipame ni tipague            ni tipague ni tipame,same,FS,0,48,48,19,,,,,,,3,37.032,,,2015_Dec_29_1156,31.99063746,binobino,1,r302
C:\Users\viola\Desktop\FR_GHM\tiboufetiboufre.wav,L,red,tiboufe-tiboufre           tiboufre-tiboufe,fr,FCN,0,49,49,52,,,,,,,2,14.407,,,2015_Dec_29_1156,31.99063746,binobino,1,r302
C:\Users\viola\Desktop\FR_GHM\fomaigeflomaige.wav,L,conj,ni fomaige ni flomaige        ni flomaige ni fomaige,nan,ICN,0,50,50,46,,,,,,,5,11.208,,,2015_Dec_29_1156,31.99063746,binobino,1,r302
C:\Users\viola\Desktop\FR_GHM\pamiquelamique.wav,R,conj,ni pamique ni lamique         ni lamique ni pamique,diff,IS,0,51,51,5,,,,,,,2,12.959,,,2015_Dec_29_1156,31.99063746,binobino,1,r302
C:\Users\viola\Desktop\FR_GHM\rinoulerinoupe.wav,R,red,rinoule-rinoupe          rinoupe-rinoule,diff,FS,0,52,52,11,,,,,,,4,18.946,,,2015_Dec_29_1156,31.99063746,binobino,1,r302
C:\Users\viola\Desktop\FR_GHM\davaisdavain.wav,L,conj,ni davais ni davain              ni davain ni davais,op,VN,0,53,53,27,,,,,,,2,24.788,,,2015_Dec_29_1156,31.99063746,binobino,1,r302
C:\Users\viola\Desktop\FR_GHM\coubadecoubaille.wav,L,conj,ni coubade ni coubaille       ni coubaille ni coubade,diff,FS,0,54,54,16,,,,,,,2,11.972,,,2015_Dec_29_1156,31.99063746,binobino,1,r302
C:\Users\viola\Desktop\FR_GHM\tidatidan.wav,L,red,tida-tidan                  tidan-tida,op,VN,0,55,55,21,,,,,,,1,10.076,,,2015_Dec_29_1156,31.99063746,binobino,1,r302
C:\Users\viola\Desktop\FR_GHM\clatifeclatafe.wav,L,red,clatife-clatafe            clatafe-clatife,h,VQ,0,56,56,34,,,,,,,1,11.418,,,2015_Dec_29_1156,31.99063746,binobino,1,r302
C:\Users\viola\Desktop\FR_GHM\sapaiquesapoque.wav,L,conj,ni sapaique ni sapoque       ni sapoque ni sapaique,a,VQ,0,57,57,37,,,,,,,3,41.386,,,2015_Dec_29_1156,31.99063746,binobino,1,r302
C:\Users\viola\Desktop\FR_GHM\bicafebicafre.wav,L,red,bicafe-bicafre             bicafre-bicafe,fr,FCN,0,58,58,54,,,,,,,2,14.339,,,2015_Dec_29_1156,31.99063746,binobino,1,r302
C:\Users\viola\Desktop\FR_GHM\chipanechipague.wav,R,red,chipane-chipague     chipague-chipane,same,FS,0,59,59,13,,,,,,,2,16.964,,,2015_Dec_29_1156,31.99063746,binobino,1,r302
C:\Users\viola\Desktop\FR_GHM\supetteslupette.wav,R,conj,ni supette ni slupette            ni supette ni gupette,nan,IS/ICN,,,,,0,0,0,37,,,,,6,19.444,2015_Dec_29_1156,31.99063746,binobino,1,r302
C:\Users\viola\Desktop\FR_GHM\chaditadi.wav,L,red,chadi-tadi                   chadi-chada,h,IS/VQ,,,,,0,1,1,12,,,,,6,14.789,2015_Dec_29_1156,31.99063746,binobino,1,r302
C:\Users\viola\Desktop\FR_GHM\fudettefudotte.wav,R,red,fudette-fudotte             fudette-budette,a,IS/VQ,,,,,0,2,2,11,,,,,3,29.635,2015_Dec_29_1156,31.99063746,binobino,1,r302
C:\Users\viola\Desktop\FR_GHM\gautrettegautrotte.wav,L,red,gautrette-gautrotte        gautrette-gautrinte,nan,VQ/VN,,,,,0,3,3,2,,,,,2,7.553,2015_Dec_29_1156,31.99063746,binobino,1,r302
C:\Users\viola\Desktop\FR_GHM\faprigefaprage.wav,R,conj,ni faprige ni faprage                 ni faprige ni gaprige,h,IS/VQ,,,,,0,4,4,15,,,,,5,12.471,2015_Dec_29_1156,31.99063746,binobino,1,r302
C:\Users\viola\Desktop\FR_GHM\soitettesoitinte.wav,R,conj,ni soitette ni soitinte                ni soitette ni soitotte,nan,VQ/VN,,,,,0,5,5,7,,,,,3,16.847,2015_Dec_29_1156,31.99063746,binobino,1,r302
C:\Users\viola\Desktop\FR_GHM\sudettepudette.wav,L,red,sudette-pudette        sudette-studette,nan,IS/ICN,,,,,0,6,6,32,,,,,5,10.164,2015_Dec_29_1156,31.99063746,binobino,1,r302
C:\Users\viola\Desktop\FR_GHM\tupettetupotte.wav,R,conj,ni tupette ni tupotte                ni tupette ni trupette,a,ICN/VQ,,,,,0,7,7,27,,,,,6,6.809,2015_Dec_29_1156,31.99063746,binobino,1,r302
C:\Users\viola\Desktop\FR_GHM\sabicabi.wav,L,red,sabi-cabi                     sabi-saba              ,h,IS/VQ,,,,,0,8,8,10,,,,,6,5.722,2015_Dec_29_1156,31.99063746,binobino,1,r302
C:\Users\viola\Desktop\FR_GHM\saglettepaglette.wav,L,conj,ni saglette ni paglette           ni saglette ni staglette,nan,IS/ICN,,,,,0,9,9,36,,,,,2,7.025,2015_Dec_29_1156,31.99063746,binobino,1,r302
C:\Users\viola\Desktop\FR_GHM\dabidrabi.wav,L,red,dabi-drabi                  dabi-daba ,h,ICN/VQ,,,,,0,10,10,20,,,,,5,6.725,2015_Dec_29_1156,31.99063746,binobino,1,r302
C:\Users\viola\Desktop\FR_GHM\churettechurinte.wav,R,red,churette-churinte           churette-churotte,nan,VQ/VN,,,,,0,11,11,1,,,,,5,4.217,2015_Dec_29_1156,31.99063746,binobino,1,r302
C:\Users\viola\Desktop\FR_GHM\maflettemaflotte.wav,L,conj,ni maflette ni maflotte              ni maflette ni maflinte,nan,VQ/VN,,,,,0,12,12,8,,,,,2,6.665,2015_Dec_29_1156,31.99063746,binobino,1,r302
C:\Users\viola\Desktop\FR_GHM\faglifragli.wav,R,red,fagli-fragli                 fagli-tagli,nan,IS/ICN,,,,,0,13,13,31,,,,,5,14.374,2015_Dec_29_1156,31.99063746,binobino,1,r302
C:\Users\viola\Desktop\FR_GHM\faglettefaglotte.wav,R,conj,ni faglette ni faglotte                ni faglette ni taglette,a,IS/VQ,,,,,0,14,14,17,,,,,2,6.042,2015_Dec_29_1156,31.99063746,binobino,1,r302
C:\Users\viola\Desktop\FR_GHM\saubettesaubotte.wav,R,red,saubette-saubotte       saubette-daubette,a,IS/VQ,,,,,0,15,15,13,,,,,3,10.036,2015_Dec_29_1156,31.99063746,binobino,1,r302
C:\Users\viola\Desktop\FR_GHM\sadigadi.wav,L,red,sadi-gadi                  sadi-sladi,nan,IS/ICN,,,,,0,16,16,34,,,,,2,5.694,2015_Dec_29_1156,31.99063746,binobino,1,r302
C:\Users\viola\Desktop\FR_GHM\faubetteflaubette.wav,R,red,faubette-flaubette      faubette-gaubette,nan,IS/ICN,,,,,0,17,17,33,,,,,4,5.936,2015_Dec_29_1156,31.99063746,binobino,1,r302
C:\Users\viola\Desktop\FR_GHM\vapettevapinte.wav,R,conj,ni vapette ni vapinte                 ni vapette ni vapotte,nan,VQ/VN,,,,,0,18,18,9,,,,,5,4.473,2015_Dec_29_1156,31.99063746,binobino,1,r302
C:\Users\viola\Desktop\FR_GHM\paglipagla.wav,R,red,pagli-pagla                 pagli-pragli,h,ICN/VQ,,,,,0,19,19,23,,,,,2,6.063,2015_Dec_29_1156,31.99063746,binobino,1,r302
C:\Users\viola\Desktop\FR_GHM\daglettedraglette.wav,L,conj,ni daglette ni draglette            ni daglette ni daglotte,a,ICN/VQ,,,,,0,20,20,26,,,,,4,8.382,2015_Dec_29_1156,31.99063746,binobino,1,r302
C:\Users\viola\Desktop\FR_GHM\baprigeblaprige.wav,L,conj,ni baprige ni blaprige             ni baprige ni baprage,h,ICN/VQ,,,,,0,21,21,28,,,,,4,12.432,2015_Dec_29_1156,31.99063746,binobino,1,r302
C:\Users\viola\Desktop\FR_GHM\fouguiflougui.wav,R,conj,ni fougui ni flougui                ni fougui ni pougui,nan,IS/ICN,,,,,0,22,22,35,,,,,4,4.748,2015_Dec_29_1156,31.99063746,binobino,1,r302
C:\Users\viola\Desktop\FR_GHM\gontecgontoc.wav,R,conj,ni gontec ni gontoc                ni gontec ni grontec,a,ICN/VQ,,,,,0,23,23,29,,,,,3,9.322,2015_Dec_29_1156,31.99063746,binobino,1,r302
C:\Users\viola\Desktop\FR_GHM\sontecbontec.wav,L,conj,ni sontec ni bontec               ni sontec ni stontec,nan,IS/ICN,,,,,0,24,24,38,,,,,2,6.136,2015_Dec_29_1156,31.99063746,binobino,1,r302
C:\Users\viola\Desktop\FR_GHM\souguidougui.wav,L,conj,ni sougui ni dougui                  ni sougui ni sougua,h,IS/VQ,,,,,0,25,25,18,,,,,2,6.733,2015_Dec_29_1156,31.99063746,binobino,1,r302
C:\Users\viola\Desktop\FR_GHM\saglidagli.wav,L,red,sagli-dagli                   sagli-sagla,h,IS/VQ,,,,,0,26,26,14,,,,,3,10.472,2015_Dec_29_1156,31.99063746,binobino,1,r302
C:\Users\viola\Desktop\FR_GHM\plaretteplarotte.wav,L,red,plarette-plarotte            plarette-plarinte,nan,VQ/VN,,,,,0,27,27,4,,,,,2,5.294,2015_Dec_29_1156,31.99063746,binobino,1,r302
C:\Users\viola\Desktop\FR_GHM\fabigabi.wav,L,red,fabi-gabi                   fabi-flabi,nan,IS/ICN,,,,,0,28,28,30,,,,,4,10.684,2015_Dec_29_1156,31.99063746,binobino,1,r302
C:\Users\viola\Desktop\FR_GHM\padipada.wav,R,red,padi-pada                  padi-pladi,h,ICN/VQ,,,,,0,29,29,21,,,,,2,7.344,2015_Dec_29_1156,31.99063746,binobino,1,r302
C:\Users\viola\Desktop\FR_GHM\bimettebiminte.wav,R,conj,ni bimette ni biminte                ni bimette ni bimotte,nan,VQ/VN,,,,,0,30,30,5,,,,,5,4.794,2015_Dec_29_1156,31.99063746,binobino,1,r302
C:\Users\viola\Desktop\FR_GHM\saprigestaprige.wav,R,conj,ni saprige ni staprige            ni saprige ni caprige             ,nan,IS/ICN,,,,,0,31,31,39,,,,,5,5.736,2015_Dec_29_1156,31.99063746,binobino,1,r302
C:\Users\viola\Desktop\FR_GHM\croudettecroudinte.wav,R,red,croudette-croudinte       croudette-croudotte,nan,VQ/VN,,,,,0,32,32,3,,,,,4,5.056,2015_Dec_29_1156,31.99063746,binobino,1,r302
C:\Users\viola\Desktop\FR_GHM\fupettecupette.wav,L,conj,ni fupette ni cupette                 ni fupette ni fupotte,a,IS/VQ,,,,,0,33,33,16,,,,,1,7.641,2015_Dec_29_1156,31.99063746,binobino,1,r302
C:\Users\viola\Desktop\FR_GHM\paubetteplaubette.wav,L,red,paubette-plaubette      paubette-paubotte,a,ICN/VQ,,,,,0,34,34,24,,,,,4,6.667,2015_Dec_29_1156,31.99063746,binobino,1,r302
C:\Users\viola\Desktop\FR_GHM\couguicougua.wav,R,conj,ni cougui ni cougua                ni cougui ni crougui,h,ICN/VQ,,,,,0,35,35,25,,,,,4,5.246,2015_Dec_29_1156,31.99063746,binobino,1,r302
C:\Users\viola\Desktop\FR_GHM\lutettelutotte.wav,L,conj,ni lutette ni lutotte                   ni lutette ni lutinte,nan,VQ/VN,,,,,0,36,36,6,,,,,2,6.223,2015_Dec_29_1156,31.99063746,binobino,1,r302
C:\Users\viola\Desktop\FR_GHM\glavetteglavotte.wav,L,red,glavette-glavotte            glavette-glavinte,nan,VQ/VN,,,,,0,37,37,0,,,,,2,4.748,2015_Dec_29_1156,31.99063746,binobino,1,r302
C:\Users\viola\Desktop\FR_GHM\cudettecludette.wav,L,red,cudette-cludette         cudette-cudotte,a,ICN/VQ,,,,,0,38,38,22,,,,,4,5.834,2015_Dec_29_1156,31.99063746,binobino,1,r302
C:\Users\viola\Desktop\FR_GHM\fontecfontoc.wav,R,conj,ni fontec ni fontoc                    ni fontec ni pontec,a,IS/VQ,,,,,0,39,39,19,,,,,3,16.798,2015_Dec_29_1156,31.99063746,binobino,1,r302
