sound,predicted_order,structure,binomials,misc,rule,trials.thisRepN,trials.thisTrialN,trials.thisN,trials.thisIndex,trials_3.thisRepN,trials_3.thisTrialN,trials_3.thisN,trials_3.thisIndex,key_resp_2.keys,key_resp_2.rt,rating.response,rating.rt,rating_2.response,rating_2.rt,date,frameRate,expName,session,participant
,,,,,,,,,,,,,,space,13.84169598,,,,,2016_Feb_19_1707,31.99264154,binobino,1,r311
C:\Users\viola\Desktop\FR_GHM\ladacladacte.wav,L,conj,ni ladac ni ladacte             ni ladacte ni ladac,stop,FCN,0,0,0,56,,,,,,,1,23.068,,,2016_Feb_19_1707,31.99264154,binobino,1,r311
C:\Users\viola\Desktop\FR_GHM\flitaflitan.wav,L,conj,ni flita ni flitan                    ni flitan ni flita,op,VN,0,1,1,29,,,,,,,1,9.817,,,2016_Feb_19_1707,31.99264154,binobino,1,r311
C:\Users\viola\Desktop\FR_GHM\davaisdavain.wav,L,conj,ni davais ni davain              ni davain ni davais,op,VN,0,2,2,27,,,,,,,5,10.702,,,2016_Feb_19_1707,31.99264154,binobino,1,r311
C:\Users\viola\Desktop\FR_GHM\clavrercavrer.wav,R,conj,ni clavrer ni cavrer             ni cavrer ni clavrer,nan,ICN,0,3,3,49,,,,,,,5,12.022,,,2016_Feb_19_1707,31.99264154,binobino,1,r311
C:\Users\viola\Desktop\FR_GHM\tuguettruguet.wav,L,red,tuguet-truguet            truguet-tuguet,nan,ICN,0,4,4,44,,,,,,,2,15.075,,,2016_Feb_19_1707,31.99264154,binobino,1,r311
C:\Users\viola\Desktop\FR_GHM\stolastolan.wav,L,conj,ni stola ni stolan                ni stolan ni stola,op,VN,0,5,5,25,,,,,,,1,19.378,,,2016_Feb_19_1707,31.99264154,binobino,1,r311
C:\Users\viola\Desktop\FR_GHM\fomaigeflomaige.wav,L,conj,ni fomaige ni flomaige        ni flomaige ni fomaige,nan,ICN,0,6,6,46,,,,,,,5,21.493,,,2016_Feb_19_1707,31.99264154,binobino,1,r311
C:\Users\viola\Desktop\FR_GHM\noupetgoupet.wav,L,red,noupet-goupet          goupet-noupet,same,IS,0,7,7,0,,,,,,,2,14.165,,,2016_Feb_19_1707,31.99264154,binobino,1,r311
C:\Users\viola\Desktop\FR_GHM\loubotteloubette.wav,R,red,loubotte-loubette       loubette-loubotte,a,VQ,0,8,8,31,,,,,,,3,17.032,,,2016_Feb_19_1707,31.99264154,binobino,1,r311
C:\Users\viola\Desktop\FR_GHM\ranietteraniotte.wav,L,red,raniette-raniotte        raniotte-raniette,a,VQ,0,9,9,33,,,,,,,4,10.92,,,2016_Feb_19_1707,31.99264154,binobino,1,r311
C:\Users\viola\Desktop\FR_GHM\tilafretilafe.wav,R,conj,ni tilafre ni tilafe                 ni tilafe ni tilafre,fr,FCN,0,10,10,59,,,,,,,5,10.774,,,2016_Feb_19_1707,31.99264154,binobino,1,r311
C:\Users\viola\Desktop\FR_GHM\tipametipague.wav,R,conj,ni tipame ni tipague            ni tipague ni tipame,same,FS,0,11,11,19,,,,,,,5,11.406,,,2016_Feb_19_1707,31.99264154,binobino,1,r311
C:\Users\viola\Desktop\FR_GHM\livottedivotte.wav,L,conj,ni livotte ni divotte               ni divotte ni livotte,diff,IS,0,12,12,8,,,,,,,4,11.891,,,2016_Feb_19_1707,31.99264154,binobino,1,r311
C:\Users\viola\Desktop\FR_GHM\ridacteridac.wav,R,red,ridacte-ridac              ridac-ridacte,stop,FCN,0,13,13,51,,,,,,,5,10.208,,,2016_Feb_19_1707,31.99264154,binobino,1,r311
C:\Users\viola\Desktop\FR_GHM\cralontecralotte.wav,R,red,cralonte-cralotte        cralotte-cralonte,cl,VN,0,14,14,24,,,,,,,2,16.617,,,2016_Feb_19_1707,31.99264154,binobino,1,r311
C:\Users\viola\Desktop\FR_GHM\trivaipetivaipe.wav,R,conj,ni trivaipe ni tivaipe            ni tivaipe ni trivaipe,nan,ICN,0,15,15,45,,,,,,,3,11.717,,,2016_Feb_19_1707,31.99264154,binobino,1,r311
C:\Users\viola\Desktop\FR_GHM\tiboufetiboufre.wav,L,red,tiboufe-tiboufre           tiboufre-tiboufe,fr,FCN,0,16,16,52,,,,,,,5,13.562,,,2016_Feb_19_1707,31.99264154,binobino,1,r311
C:\Users\viola\Desktop\FR_GHM\tidatidan.wav,L,red,tida-tidan                  tidan-tida,op,VN,0,17,17,21,,,,,,,2,17.703,,,2016_Feb_19_1707,31.99264154,binobino,1,r311
C:\Users\viola\Desktop\FR_GHM\calitecalate.wav,L,red,calite-calate             calate-calite,h,VQ,0,18,18,30,,,,,,,2,15.266,,,2016_Feb_19_1707,31.99264154,binobino,1,r311
C:\Users\viola\Desktop\FR_GHM\trapiletrapale.wav,L,conj,ni trapile ni trapale              ni trapale ni trapile,h,VQ,0,19,19,38,,,,,,,5,11.042,,,2016_Feb_19_1707,31.99264154,binobino,1,r311
C:\Users\viola\Desktop\FR_GHM\davailedavaisse.wav,R,conj,ni davaile ni davaisse          ni davaisse ni davaile,same,FS,0,20,20,15,,,,,,,2,17.029,,,2016_Feb_19_1707,31.99264154,binobino,1,r311
C:\Users\viola\Desktop\FR_GHM\gouvactegouvac.wav,R,conj,ni gouvacte ni gouvac         ni gouvac ni gouvacte,stop,FCN,0,21,21,55,,,,,,,6,15.192,,,2016_Feb_19_1707,31.99264154,binobino,1,r311
C:\Users\viola\Desktop\FR_GHM\fuglatefuglite.wav,R,conj,ni fuglate ni fuglite               ni fuglite ni fuglate,h,VQ,0,22,22,36,,,,,,,6,9.521,,,2016_Feb_19_1707,31.99264154,binobino,1,r311
C:\Users\viola\Desktop\FR_GHM\ranaidecanaide.wav,L,conj,ni ranaide ni canaide           ni canaide ni ranaide,diff,IS,0,23,23,6,,,,,,,2,27.733,,,2016_Feb_19_1707,31.99264154,binobino,1,r311
C:\Users\viola\Desktop\FR_GHM\taguelague.wav,R,red,taguet-laguet            laguet-taguet,diff,IS,0,24,24,2,,,,,,,2,14.302,,,2016_Feb_19_1707,31.99264154,binobino,1,r311
C:\Users\viola\Desktop\FR_GHM\gonaisgonin.wav,L,red,gonais-gonin             gonin-gonais,op,VN,0,25,25,23,,,,,,,2,9.187,,,2016_Feb_19_1707,31.99264154,binobino,1,r311
C:\Users\viola\Desktop\FR_GHM\plirotpirot.wav,R,conj,ni plirot ni pirot                  ni pirot ni plirot,nan,ICN,0,26,26,47,,,,,,,5,9.722,,,2016_Feb_19_1707,31.99264154,binobino,1,r311
C:\Users\viola\Desktop\FR_GHM\madetgadet.wav,L,red,madet-gadet            gadet-madet,same,IS,0,27,27,4,,,,,,,5,8.59,,,2016_Feb_19_1707,31.99264154,binobino,1,r311
C:\Users\viola\Desktop\FR_GHM\coudincloudin.wav,L,conj,ni coudin ni cloudin           ni cloudin ni coudin,nan,ICN,0,28,28,48,,,,,,,5,11.058,,,2016_Feb_19_1707,31.99264154,binobino,1,r311
C:\Users\viola\Desktop\FR_GHM\fluponfupon.wav,R,red,flupon-fupon              fupon-flupon,nan,ICN,0,29,29,41,,,,,,,5,11.512,,,2016_Feb_19_1707,31.99264154,binobino,1,r311
C:\Users\viola\Desktop\FR_GHM\rinoulerinoupe.wav,R,red,rinoule-rinoupe          rinoupe-rinoule,diff,FS,0,30,30,11,,,,,,,2,16.084,,,2016_Feb_19_1707,31.99264154,binobino,1,r311
C:\Users\viola\Desktop\FR_GHM\dalaifredalaife.wav,R,conj,ni dalaifre ni dalaife            ni dalaife ni dalaifre,fr,FCN,0,31,31,57,,,,,,,6,13.76,,,2016_Feb_19_1707,31.99264154,binobino,1,r311
C:\Users\viola\Desktop\FR_GHM\rouzaperouzaille.wav,L,conj,ni rouzape ni rouzaille         ni rouzaille ni rouzape,diff,FS,0,32,32,18,,,,,,,2,13.039,,,2016_Feb_19_1707,31.99264154,binobino,1,r311
C:\Users\viola\Desktop\FR_GHM\cadaillecadape.wav,R,conj,ni cadaille ni cadape           ni cadape ni cadaille,diff,FS,0,33,33,17,,,,,,,5,10.811,,,2016_Feb_19_1707,31.99264154,binobino,1,r311
C:\Users\viola\Desktop\FR_GHM\gavaipemavaipe.wav,R,conj,ni gavaipe ni mavaipe          ni mavaipe ni gavaipe,same,IS,0,34,34,7,,,,,,,2,32.075,,,2016_Feb_19_1707,31.99264154,binobino,1,r311
C:\Users\viola\Desktop\FR_GHM\ganoucteganouc.wav,R,red,ganoucte-ganouc       ganouc-ganoucte,stop,FCN,0,35,35,53,,,,,,,5,5.739,,,2016_Feb_19_1707,31.99264154,binobino,1,r311
C:\Users\viola\Desktop\FR_GHM\padaquepadique.wav,R,red,padaque-padique      padique-padaque,h,VQ,0,36,36,32,,,,,,,6,10.383,,,2016_Feb_19_1707,31.99264154,binobino,1,r311
C:\Users\viola\Desktop\FR_GHM\chavintechavette.wav,R,red,chavinte-chavette      chavette-chavinte,cl,VN,0,37,37,22,,,,,,,1,14.643,,,2016_Feb_19_1707,31.99264154,binobino,1,r311
C:\Users\viola\Desktop\FR_GHM\plamotteplamette.wav,R,conj,ni plamotte ni plamette       ni plamette ni plamotte,a,VQ,0,38,38,39,,,,,,,2,10.79,,,2016_Feb_19_1707,31.99264154,binobino,1,r311
C:\Users\viola\Desktop\FR_GHM\bicafebicafre.wav,L,red,bicafe-bicafre             bicafre-bicafe,fr,FCN,0,39,39,54,,,,,,,2,8.779,,,2016_Feb_19_1707,31.99264154,binobino,1,r311
C:\Users\viola\Desktop\FR_GHM\rataferatalle.wav,L,red,ratafe-ratalle             ratalle-ratafe,same,FS,0,40,40,14,,,,,,,5,14.586,,,2016_Feb_19_1707,31.99264154,binobino,1,r311
C:\Users\viola\Desktop\FR_GHM\pamiquelamique.wav,R,conj,ni pamique ni lamique         ni lamique ni pamique,diff,IS,0,41,41,5,,,,,,,5,10.581,,,2016_Feb_19_1707,31.99264154,binobino,1,r311
C:\Users\viola\Desktop\FR_GHM\vulpontevulpotte.wav,R,conj,ni vulponte ni vulpotte         ni vulpotte ni vulponte,cl,VN,0,42,42,28,,,,,,,2,12.358,,,2016_Feb_19_1707,31.99264154,binobino,1,r311
C:\Users\viola\Desktop\FR_GHM\capaiccapaicte.wav,L,conj,ni capaic ni capaicte          ni capaicte ni capaic,stop,FCN,0,43,43,58,,,,,,,2,8.833,,,2016_Feb_19_1707,31.99264154,binobino,1,r311
C:\Users\viola\Desktop\FR_GHM\talaiquetalaime.wav,L,red,talaique-talaime        talaime-talaique        ,same,FS,0,44,44,12,,,,,,,5,15.105,,,2016_Feb_19_1707,31.99264154,binobino,1,r311
C:\Users\viola\Desktop\FR_GHM\padafepadafre.wav,L,red,padafe-padafre           padafre-padafe  ,fr,FCN,0,45,45,50,,,,,,,2,9.447,,,2016_Feb_19_1707,31.99264154,binobino,1,r311
C:\Users\viola\Desktop\FR_GHM\goudintegoudette.wav,R,red,goudinte-goudette     goudette-goudinte,cl,VN,0,46,46,20,,,,,,,2,9.052,,,2016_Feb_19_1707,31.99264154,binobino,1,r311
C:\Users\viola\Desktop\FR_GHM\chipanechipague.wav,R,red,chipane-chipague     chipague-chipane,same,FS,0,47,47,13,,,,,,,5,16.328,,,2016_Feb_19_1707,31.99264154,binobino,1,r311
C:\Users\viola\Desktop\FR_GHM\coubadecoubaille.wav,L,conj,ni coubade ni coubaille       ni coubaille ni coubade,diff,FS,0,48,48,16,,,,,,,2,10.11,,,2016_Feb_19_1707,31.99264154,binobino,1,r311
C:\Users\viola\Desktop\FR_GHM\rupottetupotte.wav,L,red,rupotte-tupotte          tupotte-rupotte,diff,IS,0,49,49,1,,,,,,,5,8.074,,,2016_Feb_19_1707,31.99264154,binobino,1,r311
C:\Users\viola\Desktop\FR_GHM\sapaiquesapoque.wav,L,conj,ni sapaique ni sapoque       ni sapoque ni sapaique,a,VQ,0,50,50,37,,,,,,,2,26.165,,,2016_Feb_19_1707,31.99264154,binobino,1,r311
C:\Users\viola\Desktop\FR_GHM\raffotteraffette.wav,R,conj,ni raffotte ni raffette             ni raffette ni raffotte,a,VQ,0,51,51,35,,,,,,,2,11.903,,,2016_Feb_19_1707,31.99264154,binobino,1,r311
C:\Users\viola\Desktop\FR_GHM\salainestalaine.wav,L,red,salaine-stalaine         stalaine-salaine,nan,ICN,0,52,52,42,,,,,,,5,8.004,,,2016_Feb_19_1707,31.99264154,binobino,1,r311
C:\Users\viola\Desktop\FR_GHM\traplintetraplette.wav,R,conj,ni traplinte ni traplette         ni traplette ni traplinte,cl,VN,0,53,53,26,,,,,,,2,11.494,,,2016_Feb_19_1707,31.99264154,binobino,1,r311
C:\Users\viola\Desktop\FR_GHM\guinotterinotte.wav,R,red,guinotte-rinotte         rinotte-guinotte,diff,IS,0,54,54,3,,,,,,,5,8.728,,,2016_Feb_19_1707,31.99264154,binobino,1,r311
C:\Users\viola\Desktop\FR_GHM\cazibecazille.wav,L,red,cazibe-cazille           cazille-cazibe,diff,FS,0,55,55,10,,,,,,,2,17.642,,,2016_Feb_19_1707,31.99264154,binobino,1,r311
C:\Users\viola\Desktop\FR_GHM\clatifeclatafe.wav,L,red,clatife-clatafe            clatafe-clatife,h,VQ,0,56,56,34,,,,,,,2,10.231,,,2016_Feb_19_1707,31.99264154,binobino,1,r311
C:\Users\viola\Desktop\FR_GHM\chouvetrouvet.wav,R,conj,ni chouvet ni rouvet             ni rouvet ni chouvet,same,IS,0,57,57,9,,,,,,,6,9.224,,,2016_Feb_19_1707,31.99264154,binobino,1,r311
C:\Users\viola\Desktop\FR_GHM\codellecrodelle.wav,L,red,codelle-crodelle         crodelle-codelle,nan,ICN,0,58,58,40,,,,,,,1,8.096,,,2016_Feb_19_1707,31.99264154,binobino,1,r311
C:\Users\viola\Desktop\FR_GHM\brezouillebezouille.wav,R,red,brezouille-bezouille    bezouille-brezouille,nan,ICN,0,59,59,43,,,,,,,2,16.632,,,2016_Feb_19_1707,31.99264154,binobino,1,r311
C:\Users\viola\Desktop\FR_GHM\paubetteplaubette.wav,L,red,paubette-plaubette      paubette-paubotte,a,ICN/VQ,,,,,0,0,0,24,,,,,2,12.837,2016_Feb_19_1707,31.99264154,binobino,1,r311
C:\Users\viola\Desktop\FR_GHM\daglettedraglette.wav,L,conj,ni daglette ni draglette            ni daglette ni daglotte,a,ICN/VQ,,,,,0,1,1,26,,,,,6,13.265,2016_Feb_19_1707,31.99264154,binobino,1,r311
C:\Users\viola\Desktop\FR_GHM\saubettesaubotte.wav,R,red,saubette-saubotte       saubette-daubette,a,IS/VQ,,,,,0,2,2,13,,,,,6,8.427,2016_Feb_19_1707,31.99264154,binobino,1,r311
C:\Users\viola\Desktop\FR_GHM\padipada.wav,R,red,padi-pada                  padi-pladi,h,ICN/VQ,,,,,0,3,3,21,,,,,1,7.568,2016_Feb_19_1707,31.99264154,binobino,1,r311
C:\Users\viola\Desktop\FR_GHM\glavetteglavotte.wav,L,red,glavette-glavotte            glavette-glavinte,nan,VQ/VN,,,,,0,4,4,0,,,,,1,6.68,2016_Feb_19_1707,31.99264154,binobino,1,r311
C:\Users\viola\Desktop\FR_GHM\chaditadi.wav,L,red,chadi-tadi                   chadi-chada,h,IS/VQ,,,,,0,5,5,12,,,,,2,9.159,2016_Feb_19_1707,31.99264154,binobino,1,r311
C:\Users\viola\Desktop\FR_GHM\gontecgontoc.wav,R,conj,ni gontec ni gontoc                ni gontec ni grontec,a,ICN/VQ,,,,,0,6,6,29,,,,,1,10.364,2016_Feb_19_1707,31.99264154,binobino,1,r311
C:\Users\viola\Desktop\FR_GHM\faubetteflaubette.wav,R,red,faubette-flaubette      faubette-gaubette,nan,IS/ICN,,,,,0,7,7,33,,,,,2,8.792,2016_Feb_19_1707,31.99264154,binobino,1,r311
C:\Users\viola\Desktop\FR_GHM\fontecfontoc.wav,R,conj,ni fontec ni fontoc                    ni fontec ni pontec,a,IS/VQ,,,,,0,8,8,19,,,,,2,10.751,2016_Feb_19_1707,31.99264154,binobino,1,r311
C:\Users\viola\Desktop\FR_GHM\fupettecupette.wav,L,conj,ni fupette ni cupette                 ni fupette ni fupotte,a,IS/VQ,,,,,0,9,9,16,,,,,5,10.241,2016_Feb_19_1707,31.99264154,binobino,1,r311
C:\Users\viola\Desktop\FR_GHM\supetteslupette.wav,R,conj,ni supette ni slupette            ni supette ni gupette,nan,IS/ICN,,,,,0,10,10,37,,,,,5,9.567,2016_Feb_19_1707,31.99264154,binobino,1,r311
C:\Users\viola\Desktop\FR_GHM\sadigadi.wav,L,red,sadi-gadi                  sadi-sladi,nan,IS/ICN,,,,,0,11,11,34,,,,,1,7.99,2016_Feb_19_1707,31.99264154,binobino,1,r311
C:\Users\viola\Desktop\FR_GHM\fabigabi.wav,L,red,fabi-gabi                   fabi-flabi,nan,IS/ICN,,,,,0,12,12,30,,,,,5,7.36,2016_Feb_19_1707,31.99264154,binobino,1,r311
C:\Users\viola\Desktop\FR_GHM\vapettevapinte.wav,R,conj,ni vapette ni vapinte                 ni vapette ni vapotte,nan,VQ/VN,,,,,0,13,13,9,,,,,6,7.928,2016_Feb_19_1707,31.99264154,binobino,1,r311
C:\Users\viola\Desktop\FR_GHM\dabidrabi.wav,L,red,dabi-drabi                  dabi-daba ,h,ICN/VQ,,,,,0,14,14,20,,,,,2,8.753,2016_Feb_19_1707,31.99264154,binobino,1,r311
C:\Users\viola\Desktop\FR_GHM\saglettepaglette.wav,L,conj,ni saglette ni paglette           ni saglette ni staglette,nan,IS/ICN,,,,,0,15,15,36,,,,,2,25.309,2016_Feb_19_1707,31.99264154,binobino,1,r311
C:\Users\viola\Desktop\FR_GHM\faglettefaglotte.wav,R,conj,ni faglette ni faglotte                ni faglette ni taglette,a,IS/VQ,,,,,0,16,16,17,,,,,5,9.95,2016_Feb_19_1707,31.99264154,binobino,1,r311
C:\Users\viola\Desktop\FR_GHM\bimettebiminte.wav,R,conj,ni bimette ni biminte                ni bimette ni bimotte,nan,VQ/VN,,,,,0,17,17,5,,,,,6,9.152,2016_Feb_19_1707,31.99264154,binobino,1,r311
C:\Users\viola\Desktop\FR_GHM\gautrettegautrotte.wav,L,red,gautrette-gautrotte        gautrette-gautrinte,nan,VQ/VN,,,,,0,18,18,2,,,,,5,8.317,2016_Feb_19_1707,31.99264154,binobino,1,r311
C:\Users\viola\Desktop\FR_GHM\croudettecroudinte.wav,R,red,croudette-croudinte       croudette-croudotte,nan,VQ/VN,,,,,0,19,19,3,,,,,2,7.938,2016_Feb_19_1707,31.99264154,binobino,1,r311
C:\Users\viola\Desktop\FR_GHM\plaretteplarotte.wav,L,red,plarette-plarotte            plarette-plarinte,nan,VQ/VN,,,,,0,20,20,4,,,,,5,11.017,2016_Feb_19_1707,31.99264154,binobino,1,r311
C:\Users\viola\Desktop\FR_GHM\sudettepudette.wav,L,red,sudette-pudette        sudette-studette,nan,IS/ICN,,,,,0,21,21,32,,,,,5,7.395,2016_Feb_19_1707,31.99264154,binobino,1,r311
C:\Users\viola\Desktop\FR_GHM\churettechurinte.wav,R,red,churette-churinte           churette-churotte,nan,VQ/VN,,,,,0,22,22,1,,,,,6,6.929,2016_Feb_19_1707,31.99264154,binobino,1,r311
C:\Users\viola\Desktop\FR_GHM\baprigeblaprige.wav,L,conj,ni baprige ni blaprige             ni baprige ni baprage,h,ICN/VQ,,,,,0,23,23,28,,,,,6,8.697,2016_Feb_19_1707,31.99264154,binobino,1,r311
C:\Users\viola\Desktop\FR_GHM\fouguiflougui.wav,R,conj,ni fougui ni flougui                ni fougui ni pougui,nan,IS/ICN,,,,,0,24,24,35,,,,,6,7.605,2016_Feb_19_1707,31.99264154,binobino,1,r311
C:\Users\viola\Desktop\FR_GHM\paglipagla.wav,R,red,pagli-pagla                 pagli-pragli,h,ICN/VQ,,,,,0,25,25,23,,,,,2,18.187,2016_Feb_19_1707,31.99264154,binobino,1,r311
C:\Users\viola\Desktop\FR_GHM\souguidougui.wav,L,conj,ni sougui ni dougui                  ni sougui ni sougua,h,IS/VQ,,,,,0,26,26,18,,,,,6,8.03,2016_Feb_19_1707,31.99264154,binobino,1,r311
C:\Users\viola\Desktop\FR_GHM\sontecbontec.wav,L,conj,ni sontec ni bontec               ni sontec ni stontec,nan,IS/ICN,,,,,0,27,27,38,,,,,1,8.021,2016_Feb_19_1707,31.99264154,binobino,1,r311
C:\Users\viola\Desktop\FR_GHM\lutettelutotte.wav,L,conj,ni lutette ni lutotte                   ni lutette ni lutinte,nan,VQ/VN,,,,,0,28,28,6,,,,,1,10.499,2016_Feb_19_1707,31.99264154,binobino,1,r311
C:\Users\viola\Desktop\FR_GHM\maflettemaflotte.wav,L,conj,ni maflette ni maflotte              ni maflette ni maflinte,nan,VQ/VN,,,,,0,29,29,8,,,,,6,8.917,2016_Feb_19_1707,31.99264154,binobino,1,r311
C:\Users\viola\Desktop\FR_GHM\faglifragli.wav,R,red,fagli-fragli                 fagli-tagli,nan,IS/ICN,,,,,0,30,30,31,,,,,6,6.368,2016_Feb_19_1707,31.99264154,binobino,1,r311
C:\Users\viola\Desktop\FR_GHM\couguicougua.wav,R,conj,ni cougui ni cougua                ni cougui ni crougui,h,ICN/VQ,,,,,0,31,31,25,,,,,2,10.274,2016_Feb_19_1707,31.99264154,binobino,1,r311
C:\Users\viola\Desktop\FR_GHM\faprigefaprage.wav,R,conj,ni faprige ni faprage                 ni faprige ni gaprige,h,IS/VQ,,,,,0,32,32,15,,,,,1,10.098,2016_Feb_19_1707,31.99264154,binobino,1,r311
C:\Users\viola\Desktop\FR_GHM\cudettecludette.wav,L,red,cudette-cludette         cudette-cudotte,a,ICN/VQ,,,,,0,33,33,22,,,,,5,8.981,2016_Feb_19_1707,31.99264154,binobino,1,r311
C:\Users\viola\Desktop\FR_GHM\soitettesoitinte.wav,R,conj,ni soitette ni soitinte                ni soitette ni soitotte,nan,VQ/VN,,,,,0,34,34,7,,,,,2,9.43,2016_Feb_19_1707,31.99264154,binobino,1,r311
C:\Users\viola\Desktop\FR_GHM\saprigestaprige.wav,R,conj,ni saprige ni staprige            ni saprige ni caprige             ,nan,IS/ICN,,,,,0,35,35,39,,,,,6,8.384,2016_Feb_19_1707,31.99264154,binobino,1,r311
C:\Users\viola\Desktop\FR_GHM\tupettetupotte.wav,R,conj,ni tupette ni tupotte                ni tupette ni trupette,a,ICN/VQ,,,,,0,36,36,27,,,,,6,8.104,2016_Feb_19_1707,31.99264154,binobino,1,r311
C:\Users\viola\Desktop\FR_GHM\saglidagli.wav,L,red,sagli-dagli                   sagli-sagla,h,IS/VQ,,,,,0,37,37,14,,,,,6,6.173,2016_Feb_19_1707,31.99264154,binobino,1,r311
C:\Users\viola\Desktop\FR_GHM\fudettefudotte.wav,R,red,fudette-fudotte             fudette-budette,a,IS/VQ,,,,,0,38,38,11,,,,,3,20.24,2016_Feb_19_1707,31.99264154,binobino,1,r311
C:\Users\viola\Desktop\FR_GHM\sabicabi.wav,L,red,sabi-cabi                     sabi-saba              ,h,IS/VQ,,,,,0,39,39,10,,,,,5,6.394,2016_Feb_19_1707,31.99264154,binobino,1,r311
